PacketCounter,SampleTimeFine,timestamp_ms,roll_deg,pitch_deg,yaw_deg
0,5.34231e+08,534231,-0.361635,-63.287,6.66552
1,5.3424e+08,534240,-0.346799,-63.302,6.64874
2,5.34248e+08,534248,-0.332255,-63.3168,6.63223
3,5.34256e+08,534256,-0.339087,-63.3141,6.62899
4,5.34265e+08,534265,-0.324219,-63.3275,6.61204
5,5.34273e+08,534273,-0.351927,-63.3235,6.67762
6,5.34281e+08,534281,-0.337591,-63.337,6.66145
7,5.3429e+08,534290,-0.352856,-63.3402,6.72852
8,5.34298e+08,534298,-0.338486,-63.3538,6.7125
9,5.34306e+08,534306,-0.357088,-63.3578,6.75025
10,5.34315e+08,534315,-0.341987,-63.3712,6.7335
11,5.34323e+08,534323,-0.359428,-63.3712,6.75064
12,5.34331e+08,534331,-0.34408,-63.3855,6.73304
13,5.3434e+08,534340,-0.356604,-63.3885,6.75345
14,5.34348e+08,534348,-0.34134,-63.4021,6.73647
15,5.34356e+08,534356,-0.345141,-63.4067,6.77071
16,5.34365e+08,534365,-0.330249,-63.4206,6.7539
17,5.34373e+08,534373,-0.338006,-63.4223,6.77347
18,5.34381e+08,534381,-0.324149,-63.4372,6.75747
19,5.3439e+08,534390,-0.32677,-63.4407,6.76321
20,5.34398e+08,534398,-0.310965,-63.4548,6.74567
21,5.34406e+08,534406,-0.312269,-63.4599,6.75996
22,5.34415e+08,534415,-0.298146,-63.4743,6.74401
23,5.34423e+08,534423,-0.297554,-63.478,6.75061
24,5.34431e+08,534431,-0.283127,-63.492,6.7348
25,5.3444e+08,534440,-0.283037,-63.4959,6.7481
26,5.34448e+08,534448,-0.267185,-63.5096,6.73043
27,5.34456e+08,534456,-0.266195,-63.5131,6.74293
28,5.34465e+08,534465,-0.249659,-63.5269,6.72502
29,5.34473e+08,534473,-0.25009,-63.5294,6.74022
30,5.34481e+08,534481,-0.237028,-63.5434,6.72499
31,5.3449e+08,534490,-0.235403,-63.5464,6.73731
32,5.34498e+08,534498,-0.220187,-63.5598,6.72004
33,5.34506e+08,534506,-0.218425,-63.563,6.73159
34,5.34515e+08,534515,-0.201708,-63.5777,6.7119
35,5.34523e+08,534523,-0.198526,-63.5808,6.71573
36,5.34531e+08,534531,-0.18336,-63.5943,6.69885
37,5.3454e+08,534540,-0.179696,-63.598,6.70124
38,5.34548e+08,534548,-0.165102,-63.6118,6.68473
39,5.34556e+08,534556,-0.161155,-63.6152,6.68795
40,5.34565e+08,534565,-0.145853,-63.6293,6.67051
41,5.34573e+08,534573,-0.142268,-63.6336,6.67612
42,5.34581e+08,534581,-0.126692,-63.6483,6.6591
43,5.3459e+08,534590,-0.12086,-63.6524,6.66821
44,5.34598e+08,534598,-0.104932,-63.6669,6.65129
45,5.34606e+08,534606,-0.0996049,-63.6709,6.65444
46,5.34615e+08,534615,-0.0832097,-63.6839,6.63618
47,5.34623e+08,534623,-0.0779485,-63.6885,6.63913
48,5.34631e+08,534631,-0.0620469,-63.7028,6.62115
49,5.3464e+08,534640,-0.0570942,-63.7073,6.62125
50,5.34648e+08,534648,-0.0419046,-63.7207,6.60447
51,5.34656e+08,534656,-0.035751,-63.7255,6.60831
52,5.34665e+08,534665,-0.0216357,-63.7397,6.59286
53,5.34673e+08,534673,-0.0167562,-63.7439,6.60269
54,5.34681e+08,534681,-0.00256236,-63.7587,6.58739
55,5.3469e+08,534690,0.00384614,-63.7636,6.59587
56,5.34698e+08,534698,0.018224,-63.7778,6.58002
57,5.34706e+08,534706,0.0246973,-63.7835,6.58592
58,5.34715e+08,534715,0.039784,-63.7972,6.56912
59,5.34723e+08,534723,0.0455414,-63.8022,6.57515
60,5.34731e+08,534731,0.0615964,-63.815,6.55731
61,5.3474e+08,534740,0.0671042,-63.8192,6.55989
62,5.34748e+08,534748,0.0831458,-63.8325,6.54285
63,5.34756e+08,534756,0.0900787,-63.8386,6.54621
64,5.34765e+08,534765,0.105731,-63.8526,6.52845
65,5.34773e+08,534773,0.113548,-63.8572,6.53216
66,5.34781e+08,534781,0.129697,-63.8718,6.51452
67,5.3479e+08,534790,0.137779,-63.877,6.51847
68,5.34798e+08,534798,0.153387,-63.8898,6.50079
69,5.34806e+08,534806,0.159914,-63.8946,6.50962
70,5.34815e+08,534815,0.174945,-63.9079,6.49265
71,5.34823e+08,534823,0.181053,-63.9134,6.49734
72,5.34831e+08,534831,0.197738,-63.928,6.47857
73,5.3484e+08,534840,0.203431,-63.9336,6.48222
74,5.34848e+08,534848,0.219645,-63.9473,6.46428
75,5.34856e+08,534856,0.225994,-63.9526,6.47035
76,5.34865e+08,534865,0.240049,-63.9667,6.45449
77,5.34873e+08,534873,0.24706,-63.9722,6.46024
78,5.34881e+08,534881,0.262076,-63.9859,6.44335
79,5.3489e+08,534890,0.269185,-63.9906,6.44895
80,5.34898e+08,534898,0.284934,-64.0054,6.43152
81,5.34906e+08,534906,0.289633,-64.011,6.43727
82,5.34915e+08,534915,0.305258,-64.0249,6.41971
83,5.34923e+08,534923,0.31108,-64.0294,6.42538
84,5.34931e+08,534931,0.328687,-64.0426,6.40626
85,5.3494e+08,534940,0.335507,-64.0478,6.40903
86,5.34948e+08,534948,0.350907,-64.0623,6.39263
87,5.34956e+08,534956,0.357805,-64.0676,6.39543
88,5.34965e+08,534965,0.375098,-64.0811,6.37686
89,5.34973e+08,534973,0.379295,-64.0857,6.38327
90,5.34981e+08,534981,0.395616,-64.0998,6.36455
91,5.3499e+08,534990,0.401796,-64.1044,6.37071
92,5.34998e+08,534998,0.417205,-64.1191,6.35278
93,5.35006e+08,535006,0.423444,-64.1239,6.35701
94,5.35015e+08,535015,0.439953,-64.1377,6.3386
95,5.35023e+08,535023,0.447012,-64.1422,6.34139
96,5.35031e+08,535031,0.463646,-64.1555,6.32303
97,5.3504e+08,535040,0.469507,-64.1603,6.3276
98,5.35048e+08,535048,0.48517,-64.1737,6.31035
99,5.35056e+08,535056,0.49109,-64.1798,6.31409
100,5.35065e+08,535065,0.50628,-64.193,6.29736
101,5.35073e+08,535073,0.513231,-64.1982,6.30282
102,5.35081e+08,535081,0.529685,-64.2119,6.28508
103,5.3509e+08,535090,0.533566,-64.2166,6.29172
104,5.35098e+08,535098,0.549159,-64.2307,6.27436
105,5.35106e+08,535106,0.555364,-64.2354,6.27526
106,5.35115e+08,535115,0.571322,-64.2492,6.25741
107,5.35123e+08,535123,0.576605,-64.2531,6.26197
108,5.35131e+08,535131,0.592472,-64.2672,6.24439
109,5.3514e+08,535140,0.596261,-64.2709,6.25099
110,5.35148e+08,535148,0.610352,-64.2851,6.23453
111,5.35156e+08,535156,0.617136,-64.2895,6.23503
112,5.35165e+08,535165,0.634381,-64.3032,6.21677
113,5.35173e+08,535173,0.642919,-64.3083,6.21962
114,5.35181e+08,535181,0.659871,-64.321,6.20192
115,5.3519e+08,535190,0.6664,-64.3258,6.20692
116,5.35198e+08,535198,0.682372,-64.3392,6.18987
117,5.35206e+08,535206,0.686598,-64.3446,6.19612
118,5.35215e+08,535215,0.701635,-64.3576,6.17921
119,5.35223e+08,535223,0.705429,-64.3618,6.18542
120,5.35231e+08,535231,0.721054,-64.3757,6.1682
121,5.3524e+08,535240,0.727131,-64.3805,6.17135
122,5.35248e+08,535248,0.743368,-64.3943,6.15413
123,5.35256e+08,535256,0.749343,-64.398,6.15586
124,5.35265e+08,535265,0.764454,-64.4112,6.13941
125,5.35273e+08,535273,0.769792,-64.4146,6.14448
126,5.35281e+08,535281,0.785462,-64.4284,6.12753
127,5.3529e+08,535290,0.790189,-64.4313,6.13411
128,5.35298e+08,535298,0.804606,-64.4446,6.1182
129,5.35306e+08,535306,0.810398,-64.449,6.12377
130,5.35315e+08,535315,0.824443,-64.4638,6.1086
131,5.35323e+08,535323,0.828687,-64.4682,6.11516
132,5.35331e+08,535331,0.84286,-64.4804,6.09975
133,5.3534e+08,535340,0.846498,-64.4846,6.10699
134,5.35348e+08,535348,0.861998,-64.4977,6.09072
135,5.35356e+08,535356,0.866225,-64.5017,6.09809
136,5.35365e+08,535365,0.882617,-64.5142,6.07974
137,5.35373e+08,535373,0.88589,-64.5179,6.08682
138,5.35381e+08,535381,0.901234,-64.5316,6.06949
139,5.3539e+08,535390,0.903229,-64.5357,6.07878
140,5.35398e+08,535398,0.920516,-64.5489,6.05968
141,5.35406e+08,535406,0.923919,-64.5527,6.06757
142,5.35415e+08,535415,0.940031,-64.5662,6.05008
143,5.35423e+08,535423,0.94512,-64.5695,6.05662
144,5.35431e+08,535431,0.962889,-64.5837,6.03815
145,5.3544e+08,535440,0.967194,-64.5875,6.0442
146,5.35448e+08,535448,0.984322,-64.6017,6.02593
147,5.35456e+08,535456,0.988056,-64.6045,6.03389
148,5.35465e+08,535465,1.00529,-64.6183,6.01552
149,5.35473e+08,535473,1.01089,-64.6206,6.02046
150,5.35481e+08,535481,1.02693,-64.6339,6.00276
151,5.3549e+08,535490,1.02959,-64.6372,6.01148
152,5.35498e+08,535498,1.04462,-64.6507,5.99497
153,5.35506e+08,535506,1.04865,-64.6527,6.00233
154,5.35515e+08,535515,1.06289,-64.6658,5.98739
155,5.35523e+08,535523,1.06871,-64.6686,5.99201
156,5.35531e+08,535531,1.08534,-64.6811,5.9743
157,5.3554e+08,535540,1.08918,-64.683,5.982
158,5.35548e+08,535548,1.10561,-64.6955,5.96442
159,5.35556e+08,535556,1.10825,-64.6978,5.97411
160,5.35565e+08,535565,1.12373,-64.7114,5.95809
161,5.35573e+08,535573,1.12633,-64.713,5.968
162,5.35581e+08,535581,1.14253,-64.7268,5.95122
163,5.3559e+08,535590,1.14597,-64.7293,5.95891
164,5.35598e+08,535598,1.16324,-64.7409,5.94027
165,5.35606e+08,535606,1.1669,-64.7432,5.94751
166,5.35615e+08,535615,1.18374,-64.7563,5.9294
167,5.35623e+08,535623,1.1866,-64.7589,5.93786
168,5.35631e+08,535631,1.20149,-64.7722,5.92183
169,5.3564e+08,535640,1.20429,-64.7732,5.93062
170,5.35648e+08,535648,1.22307,-64.7853,5.91018
171,5.35656e+08,535656,1.22586,-64.787,5.91931
172,5.35665e+08,535665,1.23943,-64.7997,5.90398
173,5.35673e+08,535673,1.24236,-64.8014,5.91225
174,5.35681e+08,535681,1.25943,-64.8147,5.89443
175,5.3569e+08,535690,1.26275,-64.8158,5.90198
176,5.35698e+08,535698,1.27869,-64.8288,5.88537
177,5.35706e+08,535706,1.2818,-64.8308,5.89513
178,5.35715e+08,535715,1.29681,-64.843,5.87901
179,5.35723e+08,535723,1.2981,-64.8445,5.88946
180,5.35731e+08,535731,1.31515,-64.8571,5.8722
181,5.3574e+08,535740,1.31783,-64.8589,5.88114
182,5.35748e+08,535748,1.33217,-64.8727,5.86615
183,5.35756e+08,535756,1.33527,-64.8727,5.87499
184,5.35765e+08,535765,1.35268,-64.8849,5.85692
185,5.35773e+08,535773,1.35529,-64.8859,5.86701
186,5.35781e+08,535781,1.37082,-64.8986,5.85132
187,5.3579e+08,535790,1.37197,-64.8991,5.86119
188,5.35798e+08,535798,1.38762,-64.9119,5.84455
189,5.35806e+08,535806,1.38878,-64.9124,5.85494
190,5.35815e+08,535815,1.40609,-64.9246,5.83729
191,5.35823e+08,535823,1.40701,-64.9252,5.84767
192,5.35831e+08,535831,1.42097,-64.9381,5.83308
193,5.3584e+08,535840,1.42273,-64.9378,5.84373
194,5.35848e+08,535848,1.43908,-64.9504,5.82605
195,5.35856e+08,535856,1.43912,-64.9513,5.83745
196,5.35865e+08,535865,1.45473,-64.9638,5.82111
197,5.35873e+08,535873,1.45578,-64.9635,5.83212
198,5.35881e+08,535881,1.47382,-64.9763,5.81403
199,5.3589e+08,535890,1.47227,-64.9753,5.82879
200,5.35898e+08,535898,1.48696,-64.987,5.81318
201,5.35906e+08,535906,1.48767,-64.9867,5.82529
202,5.35915e+08,535915,1.50354,-64.9986,5.80991
203,5.35923e+08,535923,1.5038,-64.9982,5.82286
204,5.35931e+08,535931,1.51928,-65.0099,5.80758
205,5.3594e+08,535940,1.51938,-65.0086,5.81905
206,5.35948e+08,535948,1.53529,-65.0217,5.80209
207,5.35956e+08,535956,1.53422,-65.0206,5.81559
208,5.35965e+08,535965,1.55029,-65.0321,5.79964
209,5.35973e+08,535973,1.54958,-65.0306,5.81294
210,5.35981e+08,535981,1.56689,-65.043,5.79584
211,5.3599e+08,535990,1.5647,-65.0415,5.80971
212,5.35998e+08,535998,1.57935,-65.0545,5.79511
213,5.36006e+08,536006,1.57766,-65.0532,5.8095
214,5.36015e+08,536015,1.592,-65.0654,5.7943
215,5.36023e+08,536023,1.59131,-65.0636,5.80797
216,5.36031e+08,536031,1.60702,-65.0764,5.7929
217,5.3604e+08,536040,1.60642,-65.0748,5.80666
218,5.36048e+08,536048,1.62084,-65.0869,5.79209
219,5.36056e+08,536056,1.61885,-65.0845,5.80766
220,5.36065e+08,536065,1.63427,-65.0969,5.79213
221,5.36073e+08,536073,1.63113,-65.0949,5.80789
222,5.36081e+08,536081,1.64445,-65.1067,5.79447
223,5.3609e+08,536090,1.64327,-65.104,5.81011
224,5.36098e+08,536098,1.65664,-65.116,5.79705
225,5.36106e+08,536106,1.65482,-65.114,5.81198
226,5.36115e+08,536115,1.66997,-65.1262,5.79614
227,5.36123e+08,536123,1.66816,-65.1235,5.81106
228,5.36131e+08,536131,1.68175,-65.135,5.79656
229,5.3614e+08,536140,1.68026,-65.1323,5.81168
230,5.36148e+08,536148,1.69502,-65.1434,5.79728
231,5.36156e+08,536156,1.69292,-65.1412,5.81349
232,5.36165e+08,536165,1.70601,-65.1535,5.80054
233,5.36173e+08,536173,1.70262,-65.1507,5.81754
234,5.36181e+08,536181,1.71655,-65.1629,5.80309
235,5.3619e+08,536190,1.71527,-65.1597,5.81791
236,5.36198e+08,536198,1.73076,-65.1713,5.80148
237,5.36206e+08,536206,1.72649,-65.1674,5.81995
238,5.36215e+08,536215,1.74098,-65.1783,5.80492
239,5.36223e+08,536223,-0.550617,-63.1664,8.0169
240,5.36231e+08,536231,-0.53653,-63.1785,8.00307
241,5.3624e+08,536240,-0.534632,-63.1781,7.99481
242,5.36248e+08,536248,-0.535481,-63.178,7.99592
243,5.36256e+08,536256,-0.535569,-63.1777,7.98956
244,5.36265e+08,536265,-0.537938,-63.1781,7.99152
245,5.36273e+08,536273,-0.53987,-63.178,7.98713
246,5.36281e+08,536281,-0.538786,-63.1782,7.98631
247,5.3629e+08,536290,-0.537804,-63.1785,7.98055
248,5.36298e+08,536298,-0.538384,-63.1788,7.98031
249,5.36306e+08,536306,-0.539006,-63.1788,7.9747
250,5.36315e+08,536315,-0.539462,-63.179,7.9751
251,5.36323e+08,536323,-0.540752,-63.179,7.96986
252,5.36331e+08,536331,-0.541619,-63.1788,7.97043
253,5.3634e+08,536340,-0.539892,-63.1796,7.96266
254,5.36348e+08,536348,-0.539295,-63.1788,7.96176
255,5.36356e+08,536356,-0.538151,-63.1785,7.95458
256,5.36365e+08,536365,-0.539342,-63.1779,7.95646
257,5.36373e+08,536373,-0.541107,-63.1764,7.95321
258,5.36381e+08,536381,-0.540255,-63.1759,7.95306
259,5.3639e+08,536390,-0.540018,-63.1759,7.94848
260,5.36398e+08,536398,-0.542042,-63.1751,7.95009
261,5.36406e+08,536406,-0.542372,-63.1746,7.94573
262,5.36415e+08,536415,-0.543394,-63.1751,7.94645
263,5.36423e+08,536423,-0.544243,-63.176,7.94257
264,5.36431e+08,536431,-0.544689,-63.1765,7.94267
265,5.3644e+08,536440,-0.546568,-63.176,7.93884
266,5.36448e+08,536448,-0.546718,-63.1768,7.93879
267,5.36456e+08,536456,-0.547221,-63.1765,7.93351
268,5.36465e+08,536465,-0.548034,-63.1761,7.93514
269,5.36473e+08,536473,-0.54713,-63.176,7.92845
270,5.36481e+08,536481,-0.546507,-63.176,7.92766
271,5.3649e+08,536490,-0.545252,-63.1757,7.92233
272,5.36498e+08,536498,-0.545644,-63.1762,7.92219
273,5.36506e+08,536506,-0.545705,-63.1762,7.91721
274,5.36515e+08,536515,-0.545262,-63.1768,7.9169
275,5.36523e+08,536523,-0.544377,-63.1765,7.91025
276,5.36531e+08,536531,-0.543804,-63.1766,7.9096
277,5.3654e+08,536540,-0.542481,-63.1769,7.90324
278,5.36548e+08,536548,-0.54245,-63.1776,7.90227
279,5.36556e+08,536556,-0.543379,-63.1783,7.8976
280,5.36565e+08,536565,-0.543171,-63.1786,7.89725
281,5.36573e+08,536573,-0.542692,-63.1786,7.89181
282,5.36581e+08,536581,-0.540348,-63.1785,7.88931
283,5.3659e+08,536590,-0.539927,-63.178,7.88478
284,5.36598e+08,536598,-0.541118,-63.1784,7.88562
285,5.36606e+08,536606,-0.541283,-63.1785,7.88003
286,5.36615e+08,536615,-0.541037,-63.1783,7.87944
287,5.36623e+08,536623,-0.541212,-63.1776,7.87609
288,5.36631e+08,536631,-0.541256,-63.1773,7.87573
289,5.3664e+08,536640,-0.541084,-63.1764,7.87151
290,5.36648e+08,536648,-0.540783,-63.1756,7.87158
291,5.36656e+08,536656,-0.540582,-63.1759,7.86792
292,5.36665e+08,536665,-0.539601,-63.1764,7.86653
293,5.36673e+08,536673,-0.539109,-63.1767,7.86076
294,5.36681e+08,536681,-0.539391,-63.1763,7.86106
295,5.3669e+08,536690,-0.539464,-63.1766,7.85652
296,5.36698e+08,536698,-0.539405,-63.1764,7.85669
297,5.36706e+08,536706,-0.540058,-63.1762,7.85435
298,5.36715e+08,536715,-0.541753,-63.1765,7.85581
299,5.36723e+08,536723,-0.542966,-63.1753,7.85233
300,5.36731e+08,536731,-0.543666,-63.1755,7.85235
301,5.3674e+08,536740,-0.541791,-63.1749,7.84564
302,5.36748e+08,536748,-0.543652,-63.1751,7.84774
303,5.36756e+08,536756,-0.544238,-63.1759,7.84427
304,5.36765e+08,536765,-0.544389,-63.1756,7.84429
305,5.36773e+08,536773,-0.543168,-63.1756,7.83931
306,5.36781e+08,536781,-0.542311,-63.1753,7.8382
307,5.3679e+08,536790,-0.542968,-63.1755,7.83532
308,5.36798e+08,536798,-0.541684,-63.1758,7.83323
309,5.36806e+08,536806,-0.542064,-63.1754,7.82948
310,5.36815e+08,536815,-0.542434,-63.1768,7.83011
311,5.36823e+08,536823,-0.543623,-63.1768,7.82751
312,5.36831e+08,536831,-0.544213,-63.1768,7.82819
313,5.3684e+08,536840,-0.542934,-63.177,7.823
314,5.36848e+08,536848,-0.544195,-63.1768,7.82436
315,5.36856e+08,536856,-0.544554,-63.1767,7.82062
316,5.36864e+08,536864,-0.544887,-63.1764,7.82061
317,5.36873e+08,536873,-0.543138,-63.1768,7.81501
318,5.36881e+08,536881,-0.544262,-63.1766,7.81585
319,5.36889e+08,536889,-0.544828,-63.1764,7.81284
320,5.36898e+08,536898,-0.544446,-63.1758,7.81278
321,5.36906e+08,536906,-0.545774,-63.1758,7.81044
322,5.36914e+08,536914,-0.545579,-63.1754,7.81058
323,5.36923e+08,536923,-0.545021,-63.1759,7.80677
324,5.36931e+08,536931,-0.544058,-63.176,7.80619
325,5.36939e+08,536939,-0.544835,-63.1759,7.80274
326,5.36948e+08,536948,-0.546731,-63.1755,7.80502
327,5.36956e+08,536956,-0.547597,-63.1754,7.80204
328,5.36964e+08,536964,-0.549272,-63.1755,7.80363
329,5.36973e+08,536973,-0.550156,-63.1751,7.8008
330,5.36981e+08,536981,-0.551501,-63.1747,7.8025
331,5.36989e+08,536989,-0.551402,-63.1743,7.7979
332,5.36998e+08,536998,-0.552782,-63.174,7.79886
333,5.37006e+08,537006,-0.552639,-63.1739,7.7958
334,5.37014e+08,537014,-0.551089,-63.1737,7.79408
335,5.37023e+08,537023,-0.551282,-63.174,7.79121
336,5.37031e+08,537031,-0.552671,-63.1744,7.79248
337,5.37039e+08,537039,-0.553143,-63.1743,7.79023
338,5.37048e+08,537048,-0.552538,-63.174,7.78968
339,5.37056e+08,537056,-0.551903,-63.174,7.78594
340,5.37064e+08,537064,-0.551117,-63.1738,7.78421
341,5.37073e+08,537073,-0.550701,-63.1736,7.78176
342,5.37081e+08,537081,-0.549163,-63.173,7.78041
343,5.37089e+08,537089,-0.547461,-63.1727,7.77608
344,5.37098e+08,537098,-0.546307,-63.1723,7.7747
345,5.37106e+08,537106,-0.545557,-63.1721,7.77132
346,5.37114e+08,537114,-0.546233,-63.1726,7.7722
347,5.37123e+08,537123,-0.546302,-63.1721,7.76908
348,5.37131e+08,537131,-0.546559,-63.171,7.76898
349,5.37139e+08,537139,-0.545262,-63.1708,7.76384
350,5.37148e+08,537148,-0.54278,-63.1704,7.76151
351,5.37156e+08,537156,-0.541835,-63.1705,7.75693
352,5.37164e+08,537164,-0.540792,-63.1708,7.75585
353,5.37173e+08,537173,-0.540519,-63.1701,7.75337
354,5.37181e+08,537181,-0.539835,-63.1705,7.75291
355,5.37189e+08,537189,-0.54063,-63.17,7.75131
356,5.37198e+08,537198,-0.54073,-63.1695,7.75123
357,5.37206e+08,537206,-0.54183,-63.1702,7.74945
358,5.37214e+08,537214,-0.542379,-63.1704,7.74943
359,5.37223e+08,537223,-0.542594,-63.1708,7.7469
360,5.37231e+08,537231,-0.543324,-63.1708,7.74825
361,5.37239e+08,537239,-0.543532,-63.1719,7.74552
362,5.37248e+08,537248,-0.543784,-63.1726,7.74478
363,5.37256e+08,537256,-0.543264,-63.1731,7.74002
364,5.37264e+08,537264,-0.543246,-63.1729,7.74015
365,5.37273e+08,537273,-0.543727,-63.172,7.7382
366,5.37281e+08,537281,-0.544706,-63.1709,7.73965
367,5.37289e+08,537289,-0.543922,-63.1704,7.73645
368,5.37298e+08,537298,-0.54558,-63.1696,7.73751
369,5.37306e+08,537306,-0.547801,-63.1698,7.73608
370,5.37314e+08,537314,-0.548435,-63.1704,7.73683
371,5.37323e+08,537323,-0.549779,-63.1698,7.73515
372,5.37331e+08,537331,-0.549353,-63.1693,7.73489
373,5.37339e+08,537339,-0.549446,-63.1695,7.73243
374,5.37348e+08,537348,-0.550202,-63.1694,7.73368
375,5.37356e+08,537356,-0.552244,-63.1684,7.73225
376,5.37364e+08,537364,-0.552366,-63.1679,7.73252
377,5.37373e+08,537373,-0.551899,-63.1685,7.72921
378,5.37381e+08,537381,-0.550077,-63.1687,7.72763
379,5.37389e+08,537389,-0.549835,-63.1675,7.72374
380,5.37398e+08,537398,-0.549704,-63.167,7.7237
381,5.37406e+08,537406,-0.549404,-63.1672,7.72063
382,5.37414e+08,537414,-0.549074,-63.1673,7.72095
383,5.37423e+08,537423,-0.548022,-63.1676,7.71792
384,5.37431e+08,537431,-0.548086,-63.1682,7.71925
385,5.37439e+08,537439,-0.547663,-63.1686,7.7163
386,5.37448e+08,537448,-0.546941,-63.1683,7.71425
387,5.37456e+08,537456,-0.546926,-63.1684,7.71091
388,5.37464e+08,537464,-0.547803,-63.1695,7.71101
389,5.37473e+08,537473,-0.547635,-63.1693,7.70803
390,5.37481e+08,537481,-0.550106,-63.1695,7.71038
391,5.37489e+08,537489,-0.551921,-63.1694,7.70991
392,5.37498e+08,537498,-0.552515,-63.1699,7.71013
393,5.37506e+08,537506,-0.553387,-63.1697,7.70801
394,5.37514e+08,537514,-0.553878,-63.1696,7.70866
395,5.37523e+08,537523,-0.554318,-63.1691,7.70644
396,5.37531e+08,537531,-0.553041,-63.1688,7.70582
397,5.37539e+08,537539,-0.554084,-63.1692,7.70418
398,5.37548e+08,537548,-0.556907,-63.1694,7.70701
399,5.37556e+08,537556,-0.55759,-63.1693,7.70443
400,5.37564e+08,537564,-0.557444,-63.1693,7.70339
401,5.37573e+08,537573,-0.559669,-63.1699,7.70275
402,5.37581e+08,537581,-0.558795,-63.1698,7.70261
403,5.37589e+08,537589,-0.557788,-63.1695,7.69923
404,5.37598e+08,537598,-0.557116,-63.17,7.69863
405,5.37606e+08,537606,-0.558957,-63.17,7.69772
406,5.37614e+08,537614,-0.559538,-63.1698,7.69885
407,5.37623e+08,537623,-0.560295,-63.1698,7.69655
408,5.37631e+08,537631,-0.559048,-63.1697,7.69523
409,5.37639e+08,537639,-0.55709,-63.1697,7.6917
410,5.37648e+08,537648,-0.556699,-63.1694,7.69131
411,5.37656e+08,537656,-0.556307,-63.1699,7.68836
412,5.37664e+08,537664,-0.557237,-63.1696,7.6894
413,5.37673e+08,537673,-0.557122,-63.1687,7.68636
414,5.37681e+08,537681,-0.556287,-63.1689,7.68566
415,5.37689e+08,537689,-0.557753,-63.1684,7.68428
416,5.37698e+08,537698,-0.556611,-63.1684,7.6831
417,5.37706e+08,537706,-0.558409,-63.1687,7.68269
418,5.37714e+08,537714,-0.557735,-63.1675,7.682
419,5.37723e+08,537723,-0.556589,-63.1677,7.67872
420,5.37731e+08,537731,-0.557061,-63.1664,7.67925
421,5.37739e+08,537739,-0.556554,-63.1666,7.67701
422,5.37748e+08,537748,-0.555321,-63.1676,7.67674
423,5.37756e+08,537756,-0.556037,-63.1669,7.67534
424,5.37764e+08,537764,-0.556339,-63.166,7.67516
425,5.37773e+08,537773,-0.556904,-63.1666,7.67288
426,5.37781e+08,537781,-0.556308,-63.1664,7.67222
427,5.37789e+08,537789,-0.555866,-63.1662,7.6688
428,5.37798e+08,537798,-0.5558,-63.1659,7.66801
429,5.37806e+08,537806,-0.556826,-63.166,7.66632
430,5.37814e+08,537814,-0.55717,-63.165,7.66738
431,5.37823e+08,537823,-0.558316,-63.165,7.66663
432,5.37831e+08,537831,-0.558661,-63.1647,7.66804
433,5.37839e+08,537839,-0.5579,-63.1656,7.66552
434,5.37848e+08,537848,-0.557487,-63.166,7.66481
435,5.37856e+08,537856,-0.555645,-63.1663,7.66099
436,5.37864e+08,537864,-0.553712,-63.1668,7.65938
437,5.37873e+08,537873,-0.553763,-63.1658,7.65756
438,5.37881e+08,537881,-0.554619,-63.1649,7.65797
439,5.37889e+08,537889,-0.553789,-63.1646,7.65479
440,5.37898e+08,537898,-0.555514,-63.1647,7.6559
441,5.37906e+08,537906,-0.555634,-63.1652,7.65357
442,5.37914e+08,537914,-0.557361,-63.1646,7.65497
443,5.37923e+08,537923,-0.557285,-63.164,7.65252
444,5.37931e+08,537931,-0.557704,-63.1639,7.65289
445,5.37939e+08,537939,-0.558377,-63.1634,7.65143
446,5.37948e+08,537948,-0.558759,-63.1636,7.65206
447,5.37956e+08,537956,-0.558893,-63.1636,7.65072
448,5.37964e+08,537964,-0.560969,-63.1634,7.65244
449,5.37973e+08,537973,-0.560394,-63.1634,7.64887
450,5.37981e+08,537981,-0.560143,-63.1644,7.64841
451,5.37989e+08,537989,-0.560372,-63.1639,7.64606
452,5.37998e+08,537998,-0.561204,-63.164,7.64687
453,5.38006e+08,538006,-0.560375,-63.1642,7.64381
454,5.38014e+08,538014,-0.559906,-63.1642,7.64286
455,5.38023e+08,538023,-0.56202,-63.163,7.64244
456,5.38031e+08,538031,-0.562871,-63.1626,7.64378
457,5.38039e+08,538039,-0.565532,-63.1623,7.64365
458,5.38048e+08,538048,-0.565856,-63.1621,7.64414
459,5.38056e+08,538056,-0.563867,-63.1616,7.63982
460,5.38064e+08,538064,-0.56274,-63.1623,7.63915
461,5.38073e+08,538073,-0.563332,-63.1621,7.63765
462,5.38081e+08,538081,-0.561963,-63.1621,7.63694
463,5.38089e+08,538089,-0.562243,-63.162,7.63497
464,5.38098e+08,538098,-0.561631,-63.1617,7.63386
465,5.38106e+08,538106,-0.562701,-63.162,7.63238
466,5.38114e+08,538114,-0.564854,-63.1613,7.63414
467,5.38123e+08,538123,-0.565218,-63.1612,7.63274
468,5.38131e+08,538131,-0.565367,-63.1614,7.63306
469,5.38139e+08,538139,-0.566421,-63.1624,7.63169
470,5.38148e+08,538148,-0.565953,-63.1629,7.63091
471,5.38156e+08,538156,-0.56613,-63.1624,7.62818
472,5.38164e+08,538164,-0.565959,-63.1618,7.62809
473,5.38173e+08,538173,-0.567507,-63.1621,7.62766
474,5.38181e+08,538181,-0.567418,-63.1623,7.62722
475,5.38189e+08,538189,-0.567283,-63.1619,7.62572
476,5.38198e+08,538198,-0.56709,-63.1614,7.62528
477,5.38206e+08,538206,-0.565806,-63.1613,7.62177
478,5.38214e+08,538214,-0.566109,-63.1607,7.6217
479,5.38223e+08,538223,-0.553615,-63.1665,7.61302
480,5.38231e+08,538231,-0.553478,-63.1669,7.61248
481,5.38239e+08,538239,-0.55295,-63.1668,7.60935
482,5.38248e+08,538248,-0.553281,-63.166,7.60991
483,5.38256e+08,538256,-0.553508,-63.1668,7.60835
484,5.38264e+08,538264,-0.551227,-63.1671,7.60583
485,5.38273e+08,538273,-0.550908,-63.1669,7.60346
486,5.38281e+08,538281,-0.552671,-63.1669,7.60553
487,5.38289e+08,538289,-0.551542,-63.1665,7.6029
488,5.38298e+08,538298,-0.551176,-63.1668,7.6017
489,5.38306e+08,538306,-0.552037,-63.1667,7.60006
490,5.38314e+08,538314,-0.553208,-63.1661,7.60044
491,5.38323e+08,538323,-0.55515,-63.1664,7.60019
492,5.38331e+08,538331,-0.555932,-63.1667,7.60115
493,5.38339e+08,538339,-0.556729,-63.1667,7.59999
494,5.38348e+08,538348,-0.556525,-63.167,7.59982
495,5.38356e+08,538356,-0.555434,-63.1666,7.59655
496,5.38364e+08,538364,-0.55628,-63.1678,7.59721
497,5.38373e+08,538373,-0.555741,-63.1681,7.59476
498,5.38381e+08,538381,-0.556061,-63.1683,7.59483
499,5.38389e+08,538389,-0.555362,-63.1678,7.59149
500,5.38398e+08,538398,-0.554472,-63.1674,7.59037
501,5.38406e+08,538406,-0.556218,-63.1671,7.59012
502,5.38414e+08,538414,-0.557102,-63.167,7.59066
503,5.38423e+08,538423,-0.557326,-63.1665,7.58941
504,5.38431e+08,538431,-0.557325,-63.1663,7.58896
505,5.38439e+08,538439,-0.557731,-63.1653,7.58702
506,5.38448e+08,538448,-0.557073,-63.1655,7.58599
507,5.38456e+08,538456,-0.557092,-63.1669,7.5847
508,5.38464e+08,538464,-0.556788,-63.1666,7.58443
509,5.38473e+08,538473,-0.554719,-63.1665,7.58121
510,5.38481e+08,538481,-0.553945,-63.1664,7.58009
511,5.38489e+08,538489,-0.553128,-63.1653,7.57793
512,5.38498e+08,538498,-0.554544,-63.1655,7.57934
513,5.38506e+08,538506,-0.556269,-63.166,7.57852
514,5.38514e+08,538514,-0.557359,-63.1655,7.57948
515,5.38523e+08,538523,-0.556437,-63.1655,7.57714
516,5.38531e+08,538531,-0.555835,-63.1668,7.57609
517,5.38539e+08,538539,-0.55476,-63.1678,7.57358
518,5.38548e+08,538548,-0.554581,-63.1679,7.57322
519,5.38556e+08,538556,-0.553601,-63.1679,7.57087
520,5.38564e+08,538564,-0.553174,-63.167,7.57044
521,5.38573e+08,538573,-0.552816,-63.1675,7.56854
522,5.38581e+08,538581,-0.553815,-63.1681,7.5691
523,5.38589e+08,538589,-0.553538,-63.1683,7.56716
524,5.38598e+08,538598,-0.552603,-63.1683,7.56671
525,5.38606e+08,538606,-0.553654,-63.1683,7.5658
526,5.38614e+08,538614,-0.554294,-63.1688,7.56527
527,5.38623e+08,538623,-0.554625,-63.1691,7.5629
528,5.38631e+08,538631,-0.555247,-63.1691,7.56347
529,5.38639e+08,538639,-0.555993,-63.1694,7.56238
530,5.38648e+08,538648,-0.556044,-63.1695,7.56222
531,5.38656e+08,538656,-0.556311,-63.1696,7.56045
532,5.38664e+08,538664,-0.55723,-63.1692,7.56129
533,5.38673e+08,538673,-0.555375,-63.1682,7.5571
534,5.38681e+08,538681,-0.554029,-63.1678,7.55586
535,5.38689e+08,538689,-0.55363,-63.1686,7.55363
536,5.38698e+08,538698,-0.553668,-63.1681,7.55293
537,5.38706e+08,538706,-0.552798,-63.168,7.55128
538,5.38714e+08,538714,-0.554618,-63.1675,7.55373
539,5.38723e+08,538723,-0.554214,-63.1671,7.55141
540,5.38731e+08,538731,-0.55604,-63.167,7.55277
541,5.38739e+08,538739,-0.557062,-63.167,7.55218
542,5.38748e+08,538748,-0.55697,-63.1671,7.5522
543,5.38756e+08,538756,-0.558786,-63.168,7.55177
544,5.38764e+08,538764,-0.557736,-63.1683,7.55134
545,5.38773e+08,538773,-0.555994,-63.1685,7.54836
546,5.38781e+08,538781,-0.556973,-63.1684,7.54968
547,5.38789e+08,538789,-0.555958,-63.1679,7.54766
548,5.38798e+08,538798,-0.555718,-63.1683,7.54645
549,5.38806e+08,538806,-0.555741,-63.168,7.5441
550,5.38814e+08,538814,-0.554321,-63.1678,7.54252
551,5.38823e+08,538823,-0.553519,-63.1678,7.54034
552,5.38831e+08,538831,-0.555035,-63.168,7.54208
553,5.38839e+08,538839,-0.554596,-63.168,7.54018
554,5.38848e+08,538848,-0.554578,-63.1679,7.53965
555,5.38856e+08,538856,-0.554152,-63.1676,7.5374
556,5.38864e+08,538864,-0.554932,-63.1673,7.53773
557,5.38873e+08,538873,-0.555523,-63.1674,7.53681
558,5.38881e+08,538881,-0.555097,-63.1679,7.53679
559,5.38889e+08,538889,-0.553535,-63.1687,7.5335
560,5.38898e+08,538898,-0.552957,-63.1691,7.53254
561,5.38906e+08,538906,-0.552558,-63.1697,7.5294
562,5.38914e+08,538914,-0.553647,-63.1695,7.53035
563,5.38923e+08,538923,-0.555513,-63.1698,7.52877
564,5.38931e+08,538931,-0.555539,-63.1701,7.528
565,5.38939e+08,538939,-0.556003,-63.1695,7.52703
566,5.38948e+08,538948,-0.555134,-63.1701,7.52595
567,5.38956e+08,538956,-0.554343,-63.1702,7.52307
568,5.38964e+08,538964,-0.553712,-63.17,7.52233
569,5.38973e+08,538973,-0.553124,-63.1705,7.52044
570,5.38981e+08,538981,-0.552739,-63.1698,7.51946
571,5.38989e+08,538989,-0.553479,-63.1697,7.51787
572,5.38998e+08,538998,-0.553008,-63.1687,7.51749
573,5.39006e+08,539006,-0.551806,-63.1689,7.5151
574,5.39014e+08,539014,-0.551604,-63.1685,7.5143
575,5.39023e+08,539023,-0.553434,-63.1689,7.51539
576,5.39031e+08,539031,-0.555002,-63.1686,7.5177
577,5.39039e+08,539039,-0.556044,-63.1676,7.51763
578,5.39048e+08,539048,-0.555428,-63.1672,7.51727
579,5.39056e+08,539056,-0.555896,-63.1671,7.51566
580,5.39064e+08,539064,-0.556173,-63.167,7.51635
581,5.39073e+08,539073,-0.557811,-63.1667,7.51661
582,5.39081e+08,539081,-0.557511,-63.1674,7.5165
583,5.39089e+08,539089,-0.557711,-63.1677,7.51509
584,5.39098e+08,539098,-0.557014,-63.1679,7.51407
585,5.39106e+08,539106,-0.556638,-63.167,7.51197
586,5.39114e+08,539114,-0.556376,-63.1663,7.51107
587,5.39123e+08,539123,-0.555349,-63.1664,7.50874
588,5.39131e+08,539131,-0.555534,-63.1662,7.50866
589,5.39139e+08,539139,-0.554891,-63.1659,7.50678
590,5.39148e+08,539148,-0.552345,-63.1656,7.5039
591,5.39156e+08,539156,-0.552477,-63.1648,7.50267
592,5.39164e+08,539164,-0.554391,-63.1643,7.50397
593,5.39173e+08,539173,-0.553466,-63.1647,7.50179
594,5.39181e+08,539181,-0.552673,-63.1653,7.50187
595,5.39189e+08,539189,-0.553262,-63.1648,7.50075
596,5.39198e+08,539198,-0.553333,-63.1656,7.50058
597,5.39206e+08,539206,-0.553581,-63.1661,7.49872
598,5.39214e+08,539214,-0.552994,-63.1663,7.49826
599,5.39223e+08,539223,-0.552157,-63.1659,7.49675
600,5.39231e+08,539231,-0.552226,-63.1666,7.49672
601,5.39239e+08,539239,-0.552521,-63.1671,7.49504
602,5.39248e+08,539248,-0.553842,-63.1678,7.49639
603,5.39256e+08,539256,-0.553076,-63.1685,7.49484
604,5.39264e+08,539264,-0.552529,-63.169,7.49358
605,5.39273e+08,539273,-0.553899,-63.1687,7.49357
606,5.39281e+08,539281,-0.554365,-63.1688,7.49347
607,5.39289e+08,539289,-0.55506,-63.1694,7.49366
608,5.39298e+08,539298,-0.555184,-63.169,7.49414
609,5.39306e+08,539306,-0.554909,-63.1685,7.49339
610,5.39314e+08,539314,-0.554533,-63.1684,7.49259
611,5.39323e+08,539323,-0.554373,-63.1688,7.49118
612,5.39331e+08,539331,-0.555918,-63.1685,7.49201
613,5.39339e+08,539339,-0.556174,-63.1683,7.49104
614,5.39348e+08,539348,-0.55458,-63.1685,7.48958
615,5.39356e+08,539356,-0.553964,-63.1684,7.48787
616,5.39364e+08,539364,-0.555174,-63.1674,7.48873
617,5.39373e+08,539373,-0.555016,-63.168,7.48728
618,5.39381e+08,539381,-0.555385,-63.168,7.48805
619,5.39389e+08,539389,-0.55478,-63.1683,7.48625
620,5.39398e+08,539398,-0.554469,-63.1677,7.48584
621,5.39406e+08,539406,-0.554419,-63.1683,7.48316
622,5.39414e+08,539414,-0.553386,-63.1683,7.48223
623,5.39423e+08,539423,-0.554366,-63.168,7.48186
624,5.39431e+08,539431,-0.555218,-63.1684,7.48237
625,5.39439e+08,539439,-0.556251,-63.1691,7.48234
626,5.39448e+08,539448,-0.557172,-63.1693,7.48311
627,5.39456e+08,539456,-0.556981,-63.169,7.48189
628,5.39464e+08,539464,-0.556007,-63.1697,7.4809
629,5.39473e+08,539473,-0.553841,-63.1695,7.47772
630,5.39481e+08,539481,-0.552158,-63.1684,7.47638
631,5.39489e+08,539489,-0.553436,-63.1687,7.47624
632,5.39498e+08,539498,-0.55361,-63.1686,7.47634
633,5.39506e+08,539506,-0.55419,-63.1693,7.47613
634,5.39514e+08,539514,-0.554947,-63.1698,7.47715
635,5.39523e+08,539523,-0.556747,-63.1698,7.47657
636,5.39531e+08,539531,-0.556895,-63.1693,7.47725
637,5.39539e+08,539539,-0.557285,-63.1697,7.47643
638,5.39548e+08,539548,-0.557511,-63.1695,7.47633
639,5.39556e+08,539556,-0.557521,-63.1694,7.475
640,5.39564e+08,539564,-0.558671,-63.1693,7.47616
641,5.39573e+08,539573,-0.558623,-63.1687,7.47427
642,5.39581e+08,539581,-0.557598,-63.1685,7.47336
643,5.39589e+08,539589,-0.556719,-63.1686,7.47171
644,5.39598e+08,539598,-0.554689,-63.1682,7.46979
645,5.39606e+08,539606,-0.554994,-63.1677,7.46882
646,5.39614e+08,539614,-0.555678,-63.1675,7.46879
647,5.39623e+08,539623,-0.554878,-63.1677,7.46631
648,5.39631e+08,539631,-0.55491,-63.168,7.46598
649,5.39639e+08,539639,-0.555066,-63.1678,7.46452
650,5.39648e+08,539648,-0.556069,-63.1675,7.46578
651,5.39656e+08,539656,-0.556547,-63.1674,7.4653
652,5.39664e+08,539664,-0.555645,-63.1667,7.46471
653,5.39673e+08,539673,-0.553438,-63.1671,7.46195
654,5.39681e+08,539681,-0.552419,-63.167,7.46118
655,5.39689e+08,539689,-0.554166,-63.1666,7.46223
656,5.39698e+08,539698,-0.555317,-63.1662,7.46318
657,5.39706e+08,539706,-0.555004,-63.1661,7.4601
658,5.39714e+08,539714,-0.555909,-63.1661,7.46143
659,5.39723e+08,539723,-0.556119,-63.1661,7.46048
660,5.39731e+08,539731,-0.555893,-63.166,7.45994
661,5.39739e+08,539739,-0.555829,-63.1661,7.45862
662,5.39748e+08,539748,-0.5559,-63.1663,7.45936
663,5.39756e+08,539756,-0.556834,-63.1657,7.45881
664,5.39764e+08,539764,-0.55703,-63.165,7.45911
665,5.39773e+08,539773,-0.556936,-63.1657,7.45771
666,5.39781e+08,539781,-0.55691,-63.1657,7.45686
667,5.39789e+08,539789,-0.556103,-63.1658,7.45499
668,5.39798e+08,539798,-0.55636,-63.1669,7.45514
669,5.39806e+08,539806,-0.555378,-63.167,7.45287
670,5.39814e+08,539814,-0.556032,-63.1666,7.45366
671,5.39823e+08,539823,-0.556175,-63.1666,7.45135
672,5.39831e+08,539831,-0.554945,-63.1667,7.4501
673,5.39839e+08,539839,-0.555268,-63.1666,7.44849
674,5.39848e+08,539848,-0.554884,-63.1666,7.44812
675,5.39856e+08,539856,-0.55371,-63.1666,7.44573
676,5.39864e+08,539864,-0.553779,-63.1669,7.44514
677,5.39873e+08,539873,-0.553615,-63.167,7.4438
678,5.39881e+08,539881,-0.554973,-63.1668,7.44489
679,5.39889e+08,539889,-0.557012,-63.166,7.44576
680,5.39898e+08,539898,-0.556981,-63.1665,7.44546
681,5.39906e+08,539906,-0.558798,-63.1669,7.44626
682,5.39914e+08,539914,-0.558383,-63.1667,7.44559
683,5.39923e+08,539923,-0.558714,-63.1664,7.44403
684,5.39931e+08,539931,-0.559121,-63.167,7.44446
685,5.39939e+08,539939,-0.556291,-63.1672,7.44075
686,5.39948e+08,539948,-0.55716,-63.1669,7.44132
687,5.39956e+08,539956,-0.556137,-63.1662,7.43898
688,5.39964e+08,539964,-0.555643,-63.1668,7.43786
689,5.39973e+08,539973,-0.55486,-63.1674,7.43645
690,5.39981e+08,539981,-0.555251,-63.1668,7.4362
691,5.39989e+08,539989,-0.555977,-63.1669,7.43601
692,5.39998e+08,539998,-0.555412,-63.1661,7.43667
693,5.40006e+08,540006,-0.554004,-63.1667,7.4348
694,5.40014e+08,540014,-0.551217,-63.167,7.43182
695,5.40023e+08,540023,-0.549149,-63.1677,7.42785
696,5.40031e+08,540031,-0.54896,-63.1673,7.4277
697,5.40039e+08,540039,-0.549005,-63.1664,7.42666
698,5.40048e+08,540048,-0.547257,-63.1661,7.42485
699,5.40056e+08,540056,-0.547753,-63.1664,7.42392
700,5.40064e+08,540064,-0.546611,-63.1664,7.42227
701,5.40073e+08,540073,-0.546646,-63.1666,7.42124
702,5.40081e+08,540081,-0.548758,-63.1664,7.42264
703,5.40089e+08,540089,-0.549511,-63.1665,7.42154
704,5.40098e+08,540098,-0.549455,-63.1667,7.42101
705,5.40106e+08,540106,-0.548731,-63.1666,7.4183
706,5.40114e+08,540114,-0.550158,-63.1663,7.41906
707,5.40123e+08,540123,-0.550901,-63.1661,7.41854
708,5.40131e+08,540131,-0.552023,-63.1661,7.41951
709,5.40139e+08,540139,-0.550528,-63.1659,7.41684
710,5.40148e+08,540148,-0.549773,-63.1661,7.41685
711,5.40156e+08,540156,-0.550518,-63.1659,7.41613
712,5.40164e+08,540164,-0.551813,-63.166,7.41684
713,5.40173e+08,540173,-0.551565,-63.1661,7.41616
714,5.40181e+08,540181,-0.550585,-63.1672,7.415
715,5.40189e+08,540189,-0.550266,-63.1672,7.41341
716,5.40198e+08,540198,-0.551373,-63.1673,7.41422
717,5.40206e+08,540206,-0.552011,-63.1675,7.41383
718,5.40214e+08,540214,-0.553674,-63.1677,7.41536
719,5.40223e+08,540223,-0.56484,-63.164,7.43938
720,5.40231e+08,540231,-0.56378,-63.1634,7.43839
721,5.40239e+08,540239,-0.566033,-63.1625,7.44013
722,5.40248e+08,540248,-0.566188,-63.1623,7.43972
723,5.40256e+08,540256,-0.564166,-63.1626,7.43743
724,5.40264e+08,540264,-0.562251,-63.1625,7.43536
725,5.40273e+08,540273,-0.563641,-63.162,7.43603
726,5.40281e+08,540281,-0.564142,-63.1617,7.43685
727,5.40289e+08,540289,-0.565591,-63.1621,7.43714
728,5.40298e+08,540298,-0.565013,-63.1615,7.43693
729,5.40306e+08,540306,-0.564531,-63.1613,7.43602
730,5.40314e+08,540314,-0.564636,-63.1603,7.43606
731,5.40323e+08,540323,-0.56608,-63.1595,7.43602
732,5.40331e+08,540331,-0.567172,-63.159,7.43664
733,5.40339e+08,540339,-0.566106,-63.1591,7.43452
734,5.40348e+08,540348,-0.565291,-63.1588,7.43341
735,5.40356e+08,540356,-0.566249,-63.1593,7.43343
736,5.40364e+08,540364,-0.566862,-63.1593,7.43417
737,5.40373e+08,540373,-0.56638,-63.1591,7.43219
738,5.40381e+08,540381,-0.565711,-63.159,7.43213
739,5.40389e+08,540389,-0.565351,-63.1591,7.43042
740,5.40398e+08,540398,-0.565833,-63.1589,7.43031
741,5.40406e+08,540406,-0.565828,-63.1594,7.42913
742,5.40414e+08,540414,-0.566877,-63.1597,7.43067
743,5.40423e+08,540423,-0.568242,-63.16,7.43111
744,5.40431e+08,540431,-0.568651,-63.1605,7.43124
745,5.40439e+08,540439,-0.569305,-63.1606,7.43036
746,5.40448e+08,540448,-0.567121,-63.1609,7.4286
747,5.40456e+08,540456,-0.566892,-63.1614,7.42736
748,5.40464e+08,540464,-0.567003,-63.1619,7.42646
749,5.40473e+08,540473,-0.568391,-63.1619,7.42685
750,5.40481e+08,540481,-0.568644,-63.1624,7.42694
751,5.40489e+08,540489,-0.566833,-63.1623,7.42413
752,5.40498e+08,540498,-0.564175,-63.1624,7.42174
753,5.40506e+08,540506,-0.564597,-63.1629,7.42123
754,5.40514e+08,540514,-0.565534,-63.1628,7.42231
755,5.40523e+08,540523,-0.567534,-63.1634,7.42461
756,5.40531e+08,540531,-0.567758,-63.1637,7.42498
757,5.40539e+08,540539,-0.567453,-63.1633,7.42378
758,5.40548e+08,540548,-0.5668,-63.1635,7.42312
759,5.40556e+08,540556,-0.567247,-63.164,7.4227
760,5.40564e+08,540564,-0.566473,-63.164,7.42212
761,5.40573e+08,540573,-0.566485,-63.1646,7.42213
762,5.40581e+08,540581,-0.566413,-63.1644,7.42273
763,5.40589e+08,540589,-0.566437,-63.164,7.42148
764,5.40598e+08,540598,-0.565841,-63.1637,7.42092
765,5.40606e+08,540606,-0.565502,-63.1636,7.41991
766,5.40614e+08,540614,-0.564029,-63.1631,7.41886
767,5.40623e+08,540623,-0.563768,-63.1635,7.41697
768,5.40631e+08,540631,-0.565023,-63.1637,7.4176
769,5.40639e+08,540639,-0.565912,-63.1636,7.41757
770,5.40648e+08,540648,-0.56583,-63.1625,7.41774
771,5.40656e+08,540656,-0.566097,-63.1634,7.41748
772,5.40664e+08,540664,-0.566164,-63.163,7.41706
773,5.40673e+08,540673,-0.56545,-63.1629,7.41534
774,5.40681e+08,540681,-0.567671,-63.1621,7.41635
775,5.40689e+08,540689,-0.565982,-63.1624,7.41448
776,5.40698e+08,540698,-0.566802,-63.1631,7.41601
777,5.40706e+08,540706,-0.567617,-63.1622,7.41617
778,5.40714e+08,540714,-0.569245,-63.1618,7.4178
779,5.40723e+08,540723,-0.570191,-63.1619,7.41805
780,5.40731e+08,540731,-0.570457,-63.1612,7.4182
781,5.40739e+08,540739,-0.569451,-63.1609,7.41642
782,5.40748e+08,540748,-0.569641,-63.1605,7.41652
783,5.40756e+08,540756,-0.56986,-63.1608,7.41589
784,5.40764e+08,540764,-0.570648,-63.161,7.41656
785,5.40773e+08,540773,-0.572625,-63.1605,7.41778
786,5.40781e+08,540781,-0.572528,-63.1621,7.41795
787,5.40789e+08,540789,-0.574413,-63.1625,7.41875
788,5.40798e+08,540798,-0.57367,-63.1625,7.41811
789,5.40806e+08,540806,-0.573792,-63.162,7.41691
790,5.40814e+08,540814,-0.573199,-63.161,7.4166
791,5.40823e+08,540823,-0.57411,-63.1612,7.41631
792,5.40831e+08,540831,-0.57557,-63.1602,7.4176
793,5.40839e+08,540839,-0.576748,-63.1594,7.41731
794,5.40848e+08,540848,-0.578722,-63.1588,7.41844
795,5.40856e+08,540856,-0.578431,-63.1584,7.41668
796,5.40864e+08,540864,-0.577245,-63.1591,7.41532
797,5.40873e+08,540873,-0.57637,-63.1592,7.41443
798,5.40881e+08,540881,-0.577468,-63.1591,7.41542
799,5.40889e+08,540889,-0.577407,-63.1589,7.41354
800,5.40898e+08,540898,-0.5765,-63.1588,7.41183
801,5.40906e+08,540906,-0.577408,-63.1589,7.41133
802,5.40914e+08,540914,-0.578009,-63.1597,7.41261
803,5.40923e+08,540923,-0.577194,-63.1592,7.41057
804,5.40931e+08,540931,-0.578085,-63.1596,7.41098
805,5.40939e+08,540939,-0.577469,-63.1593,7.40911
806,5.40948e+08,540948,-0.579057,-63.1592,7.41013
807,5.40956e+08,540956,-0.579448,-63.1598,7.41053
808,5.40964e+08,540964,-0.582839,-63.1594,7.41446
809,5.40973e+08,540973,-0.583129,-63.1591,7.41415
810,5.40981e+08,540981,-0.584069,-63.1596,7.41507
811,5.40989e+08,540989,-0.582907,-63.1601,7.41281
812,5.40998e+08,540998,-0.581965,-63.1601,7.41236
813,5.41006e+08,541006,-0.57983,-63.1601,7.40908
814,5.41014e+08,541014,-0.578932,-63.1597,7.40836
815,5.41023e+08,541023,-0.5795,-63.16,7.40758
816,5.41031e+08,541031,-0.579859,-63.1595,7.40783
817,5.41039e+08,541039,-0.580102,-63.159,7.40714
818,5.41048e+08,541048,-0.580809,-63.1593,7.4079
819,5.41056e+08,541056,-0.580058,-63.1591,7.40588
820,5.41064e+08,541064,-0.58033,-63.1588,7.40653
821,5.41073e+08,541073,-0.580903,-63.159,7.40699
822,5.41081e+08,541081,-0.581257,-63.1585,7.40759
823,5.41089e+08,541089,-0.579493,-63.1584,7.4051
824,5.41098e+08,541098,-0.580639,-63.1585,7.40626
825,5.41106e+08,541106,-0.581097,-63.1584,7.4062
826,5.41114e+08,541114,-0.580106,-63.1584,7.40483
827,5.41123e+08,541123,-0.58071,-63.1585,7.40492
828,5.41131e+08,541131,-0.579291,-63.1585,7.40317
829,5.41139e+08,541139,-0.580217,-63.1589,7.40343
830,5.41148e+08,541148,-0.579873,-63.1583,7.40247
831,5.41156e+08,541156,-0.581403,-63.1573,7.4036
832,5.41164e+08,541164,-0.582895,-63.1568,7.40535
833,5.41173e+08,541173,-0.581053,-63.1574,7.40388
834,5.41181e+08,541181,-0.580318,-63.1576,7.40404
835,5.41189e+08,541189,-0.580462,-63.1581,7.40454
836,5.41198e+08,541198,-0.580904,-63.1575,7.40565
837,5.41206e+08,541206,-0.582013,-63.1575,7.40675
838,5.41214e+08,541214,-0.583012,-63.1574,7.40738
839,5.41223e+08,541223,-0.5824,-63.1576,7.40514
840,5.41231e+08,541231,-0.582409,-63.1578,7.40565
841,5.41239e+08,541239,-0.579851,-63.1578,7.40275
842,5.41248e+08,541248,-0.580927,-63.1578,7.40375
843,5.41256e+08,541256,-0.581283,-63.1576,7.40358
844,5.41264e+08,541264,-0.580994,-63.1583,7.40361
845,5.41273e+08,541273,-0.58015,-63.1586,7.40179
846,5.41281e+08,541281,-0.579141,-63.1591,7.4011
847,5.41289e+08,541289,-0.579416,-63.1591,7.40029
848,5.41298e+08,541298,-0.580597,-63.1593,7.40185
849,5.41306e+08,541306,-0.581393,-63.1603,7.40195
850,5.41314e+08,541314,-0.581821,-63.1604,7.40221
851,5.41323e+08,541323,-0.581359,-63.1601,7.40141
852,5.41331e+08,541331,-0.5806,-63.1601,7.40052
853,5.41339e+08,541339,-0.581337,-63.1601,7.39997
854,5.41348e+08,541348,-0.581685,-63.1607,7.40077
855,5.41356e+08,541356,-0.580196,-63.1617,7.39917
856,5.41364e+08,541364,-0.580935,-63.1619,7.39964
857,5.41373e+08,541373,-0.579827,-63.1618,7.39727
858,5.41381e+08,541381,-0.57918,-63.1613,7.39705
859,5.41389e+08,541389,-0.580351,-63.1617,7.39747
860,5.41398e+08,541398,-0.581696,-63.1611,7.39882
861,5.41406e+08,541406,-0.582416,-63.1605,7.39868
862,5.41414e+08,541414,-0.5836,-63.161,7.39949
863,5.41423e+08,541423,-0.58334,-63.1612,7.3981
864,5.41431e+08,541431,-0.585112,-63.1613,7.39897
865,5.41439e+08,541439,-0.583371,-63.161,7.3968
866,5.41448e+08,541448,-0.58332,-63.1612,7.39666
867,5.41456e+08,541456,-0.582811,-63.1613,7.39507
868,5.41464e+08,541464,-0.581977,-63.1616,7.39408
869,5.41473e+08,541473,-0.58125,-63.1615,7.39281
870,5.41481e+08,541481,-0.584117,-63.1618,7.39589
871,5.41489e+08,541489,-0.58471,-63.1617,7.3954
872,5.41498e+08,541498,-0.584248,-63.1633,7.39551
873,5.41506e+08,541506,-0.583627,-63.1623,7.39444
874,5.41514e+08,541514,-0.58357,-63.1625,7.3942
875,5.41523e+08,541523,-0.582571,-63.1627,7.39169
876,5.41531e+08,541531,-0.581493,-63.1628,7.39078
877,5.41539e+08,541539,-0.58323,-63.1632,7.39103
878,5.41548e+08,541548,-0.584354,-63.1632,7.39198
879,5.41556e+08,541556,-0.585895,-63.163,7.39302
880,5.41564e+08,541564,-0.585356,-63.1636,7.3927
881,5.41573e+08,541573,-0.58582,-63.1642,7.39367
882,5.41581e+08,541581,-0.584035,-63.1638,7.39158
883,5.41589e+08,541589,-0.585035,-63.1641,7.39117
884,5.41598e+08,541598,-0.585397,-63.1642,7.39184
885,5.41606e+08,541606,-0.585125,-63.1645,7.3905
886,5.41614e+08,541614,-0.58292,-63.1646,7.38847
887,5.41623e+08,541623,-0.583293,-63.1644,7.38815
888,5.41631e+08,541631,-0.583756,-63.1634,7.38925
889,5.41639e+08,541639,-0.58376,-63.1625,7.38858
890,5.41648e+08,541648,-0.584068,-63.1626,7.38923
891,5.41656e+08,541656,-0.582705,-63.1629,7.38706
892,5.41664e+08,541664,-0.581069,-63.1636,7.38571
893,5.41673e+08,541673,-0.581318,-63.1629,7.38638
894,5.41681e+08,541681,-0.583438,-63.1633,7.38855
895,5.41689e+08,541689,-0.581626,-63.1631,7.3863
896,5.41698e+08,541698,-0.582817,-63.1635,7.38773
897,5.41706e+08,541706,-0.581807,-63.1632,7.38614
898,5.41714e+08,541714,-0.580517,-63.1633,7.38513
899,5.41723e+08,541723,-0.580771,-63.1632,7.38478
900,5.41731e+08,541731,-0.581127,-63.1633,7.38516
901,5.41739e+08,541739,-0.580396,-63.1642,7.38355
902,5.41748e+08,541748,-0.580757,-63.1657,7.38438
903,5.41756e+08,541756,-0.580538,-63.1659,7.3837
904,5.41764e+08,541764,-0.580695,-63.1662,7.38344
905,5.41773e+08,541773,-0.581128,-63.1661,7.38353
906,5.41781e+08,541781,-0.580822,-63.1665,7.38311
907,5.41789e+08,541789,-0.580622,-63.1663,7.3818
908,5.41798e+08,541798,-0.579548,-63.1661,7.3814
909,5.41806e+08,541806,-0.58009,-63.1663,7.38113
910,5.41814e+08,541814,-0.579759,-63.1658,7.38041
911,5.41823e+08,541823,-0.579826,-63.1653,7.37935
912,5.41831e+08,541831,-0.581129,-63.1657,7.38046
913,5.41839e+08,541839,-0.581708,-63.1655,7.38025
914,5.41848e+08,541848,-0.581297,-63.1653,7.37952
915,5.41856e+08,541856,-0.582485,-63.1657,7.37991
916,5.41864e+08,541864,-0.582636,-63.1658,7.38019
917,5.41873e+08,541873,-0.583257,-63.1659,7.37977
918,5.41881e+08,541881,-0.583473,-63.1655,7.38009
919,5.41889e+08,541889,-0.58282,-63.1657,7.37911
920,5.41898e+08,541898,-0.582386,-63.1659,7.379
921,5.41906e+08,541906,-0.580172,-63.1657,7.37675
922,5.41914e+08,541914,-0.579379,-63.1655,7.37533
923,5.41923e+08,541923,-0.579252,-63.1649,7.37462
924,5.41931e+08,541931,-0.579339,-63.165,7.37436
925,5.41939e+08,541939,-0.578926,-63.1658,7.37253
926,5.41948e+08,541948,-0.580122,-63.1663,7.3734
927,5.41956e+08,541956,-0.5818,-63.1663,7.37432
928,5.41964e+08,541964,-0.581018,-63.166,7.37342
929,5.41973e+08,541973,-0.580715,-63.1655,7.37188
930,5.41981e+08,541981,-0.580588,-63.166,7.37214
931,5.41989e+08,541989,-0.581845,-63.1665,7.37225
932,5.41998e+08,541998,-0.582499,-63.1667,7.37262
933,5.42006e+08,542006,-0.581303,-63.1665,7.37096
934,5.42014e+08,542014,-0.58058,-63.1662,7.37082
935,5.42023e+08,542023,-0.578749,-63.1661,7.36919
936,5.42031e+08,542031,-0.578994,-63.1662,7.36949
937,5.42039e+08,542039,-0.577816,-63.1662,7.36715
938,5.42048e+08,542048,-0.577464,-63.1658,7.36703
939,5.42056e+08,542056,-0.576806,-63.165,7.36606
940,5.42064e+08,542064,-0.575492,-63.1651,7.36357
941,5.42073e+08,542073,-0.574539,-63.1655,7.36334
942,5.42081e+08,542081,-0.575679,-63.1659,7.36406
943,5.42089e+08,542089,-0.575675,-63.1662,7.36286
944,5.42098e+08,542098,-0.575687,-63.1664,7.36271
945,5.42106e+08,542106,-0.576113,-63.1655,7.36197
946,5.42114e+08,542114,-0.576035,-63.1648,7.36191
947,5.42123e+08,542123,-0.576582,-63.1645,7.36157
948,5.42131e+08,542131,-0.575552,-63.1645,7.36075
949,5.42139e+08,542139,-0.575879,-63.1639,7.36084
950,5.42148e+08,542148,-0.575412,-63.1645,7.3606
951,5.42156e+08,542156,-0.575014,-63.1648,7.35943
952,5.42164e+08,542164,-0.574079,-63.1644,7.35873
953,5.42173e+08,542173,-0.572686,-63.1645,7.35683
954,5.42181e+08,542181,-0.57198,-63.1647,7.35686
955,5.42189e+08,542189,-0.574051,-63.1646,7.35787
956,5.42198e+08,542198,-0.574841,-63.1645,7.35845
957,5.42206e+08,542206,-0.573426,-63.1653,7.35642
958,5.42214e+08,542214,-0.572555,-63.1656,7.35662
959,5.42223e+08,542223,-0.556604,-63.1649,7.33658
960,5.42231e+08,542231,-0.557368,-63.1647,7.33725
961,5.42239e+08,542239,-0.556949,-63.165,7.33619
962,5.42248e+08,542248,-0.557367,-63.1647,7.33621
963,5.42256e+08,542256,-0.555079,-63.1647,7.33248
964,5.42264e+08,542264,-0.555111,-63.1649,7.33218
965,5.42273e+08,542273,-0.555316,-63.1651,7.33132
966,5.42281e+08,542281,-0.555825,-63.1657,7.33181
967,5.42289e+08,542289,-0.556374,-63.166,7.33175
968,5.42298e+08,542298,-0.557079,-63.166,7.3322
969,5.42306e+08,542306,-0.556483,-63.1663,7.33093
970,5.42314e+08,542314,-0.557321,-63.166,7.33111
971,5.42323e+08,542323,-0.555557,-63.1665,7.3291
972,5.42331e+08,542331,-0.557159,-63.1666,7.33092
973,5.42339e+08,542339,-0.556065,-63.1656,7.32943
974,5.42348e+08,542348,-0.555084,-63.1655,7.32803
975,5.42356e+08,542356,-0.554212,-63.1659,7.32603
976,5.42364e+08,542364,-0.554682,-63.1659,7.32782
977,5.42373e+08,542373,-0.554688,-63.1649,7.32737
978,5.42381e+08,542381,-0.556022,-63.1651,7.32786
979,5.42389e+08,542389,-0.555836,-63.1655,7.32817
980,5.42398e+08,542398,-0.555426,-63.1664,7.32782
981,5.42406e+08,542406,-0.556266,-63.1667,7.3281
982,5.42414e+08,542414,-0.555935,-63.1672,7.32762
983,5.42423e+08,542423,-0.555857,-63.1669,7.32693
984,5.42431e+08,542431,-0.555817,-63.1675,7.32697
985,5.42439e+08,542439,-0.555563,-63.1675,7.32549
986,5.42448e+08,542448,-0.555997,-63.1673,7.32551
987,5.42456e+08,542456,-0.55586,-63.1676,7.32566
988,5.42464e+08,542464,-0.554717,-63.1676,7.32551
989,5.42473e+08,542473,-0.552882,-63.1679,7.32444
990,5.42481e+08,542481,-0.551814,-63.1673,7.32342
991,5.42489e+08,542489,-0.551874,-63.1671,7.32214
992,5.42498e+08,542498,-0.551004,-63.1667,7.32197
993,5.42506e+08,542506,-0.550694,-63.1672,7.32004
994,5.42514e+08,542514,-0.552412,-63.1677,7.32124
995,5.42523e+08,542523,-0.552143,-63.1686,7.31986
996,5.42531e+08,542531,-0.551156,-63.1682,7.31803
997,5.42539e+08,542539,-0.548459,-63.1679,7.31483
998,5.42548e+08,542548,-0.549258,-63.1687,7.31581
999,5.42556e+08,542556,-0.548729,-63.1687,7.31366
1000,5.42564e+08,542564,-0.548727,-63.1686,7.3138
1001,5.42573e+08,542573,-0.550489,-63.1691,7.3147
1002,5.42581e+08,542581,-0.54922,-63.1704,7.31402
1003,5.42589e+08,542589,-0.55125,-63.1704,7.3153
1004,5.42598e+08,542598,-0.550181,-63.1708,7.31402
1005,5.42606e+08,542606,-0.549156,-63.1707,7.31182
1006,5.42614e+08,542614,-0.549157,-63.1705,7.31121
1007,5.42623e+08,542623,-0.549099,-63.1709,7.31054
1008,5.42631e+08,542631,-0.54687,-63.1702,7.30908
1009,5.42639e+08,542639,-0.546351,-63.1703,7.30765
1010,5.42648e+08,542648,-0.547101,-63.1701,7.30861
1011,5.42656e+08,542656,-0.546955,-63.1699,7.30823
1012,5.42664e+08,542664,-0.547466,-63.17,7.30827
1013,5.42673e+08,542673,-0.547274,-63.1708,7.30767
1014,5.42681e+08,542681,-0.548526,-63.1717,7.30917
1015,5.42689e+08,542689,-0.550043,-63.173,7.31035
1016,5.42698e+08,542698,-0.551183,-63.1738,7.31081
1017,5.42706e+08,542706,-0.552529,-63.1739,7.31169
1018,5.42714e+08,542714,-0.551219,-63.175,7.31148
1019,5.42723e+08,542723,-0.550896,-63.1747,7.31109
1020,5.42731e+08,542731,-0.552027,-63.1746,7.3115
1021,5.42739e+08,542739,-0.551494,-63.1742,7.30993
1022,5.42748e+08,542748,-0.553077,-63.1737,7.31032
1023,5.42756e+08,542756,-0.553177,-63.1747,7.30904
1024,5.42764e+08,542764,-0.551911,-63.1752,7.3072
1025,5.42773e+08,542773,-0.549563,-63.1749,7.30412
1026,5.42781e+08,542781,-0.548152,-63.1744,7.30307
1027,5.42789e+08,542789,-0.548438,-63.1745,7.30277
1028,5.42798e+08,542798,-0.549245,-63.1746,7.30405
1029,5.42806e+08,542806,-0.550885,-63.1748,7.30538
1030,5.42814e+08,542814,-0.551439,-63.1742,7.30639
1031,5.42823e+08,542823,-0.553865,-63.1741,7.30803
1032,5.42831e+08,542831,-0.554945,-63.1732,7.30986
1033,5.42839e+08,542839,-0.556216,-63.1739,7.31047
1034,5.42848e+08,542848,-0.555893,-63.1738,7.30961
1035,5.42856e+08,542856,-0.556945,-63.1735,7.30987
1036,5.42864e+08,542864,-0.557582,-63.1736,7.31058
1037,5.42873e+08,542873,-0.556292,-63.1738,7.30906
1038,5.42881e+08,542881,-0.556299,-63.174,7.30901
1039,5.42889e+08,542889,-0.557688,-63.1747,7.30966
1040,5.42898e+08,542898,-0.556806,-63.1743,7.30895
1041,5.42906e+08,542906,-0.55725,-63.174,7.30846
1042,5.42914e+08,542914,-0.557819,-63.1741,7.30846
1043,5.42923e+08,542923,-0.559122,-63.1739,7.30952
1044,5.42931e+08,542931,-0.560799,-63.1743,7.31063
1045,5.42939e+08,542939,-0.561475,-63.1747,7.31069
1046,5.42948e+08,542948,-0.56181,-63.1752,7.31035
1047,5.42956e+08,542956,-0.560051,-63.1763,7.30827
1048,5.42964e+08,542964,-0.559077,-63.176,7.30733
1049,5.42973e+08,542973,-0.558613,-63.176,7.30565
1050,5.42981e+08,542981,-0.558313,-63.1754,7.30528
1051,5.42989e+08,542989,-0.557639,-63.1747,7.30398
1052,5.42998e+08,542998,-0.556301,-63.1744,7.30221
1053,5.43006e+08,543006,-0.555969,-63.1736,7.30138
1054,5.43014e+08,543014,-0.555059,-63.1734,7.30118
1055,5.43023e+08,543023,-0.556711,-63.1726,7.30221
1056,5.43031e+08,543031,-0.55821,-63.1717,7.30358
1057,5.43039e+08,543039,-0.558557,-63.1711,7.30286
1058,5.43048e+08,543048,-0.558599,-63.1718,7.30323
1059,5.43056e+08,543056,-0.558585,-63.1715,7.30249
1060,5.43064e+08,543064,-0.557374,-63.1717,7.30182
1061,5.43073e+08,543073,-0.557956,-63.1718,7.30227
1062,5.43081e+08,543081,-0.558387,-63.1722,7.30282
1063,5.43089e+08,543089,-0.558582,-63.1719,7.30228
1064,5.43098e+08,543098,-0.558509,-63.1718,7.30223
1065,5.43106e+08,543106,-0.557355,-63.1718,7.30015
1066,5.43114e+08,543114,-0.555914,-63.1723,7.2996
1067,5.43123e+08,543123,-0.554178,-63.1726,7.29802
1068,5.43131e+08,543131,-0.553815,-63.1726,7.29787
1069,5.43139e+08,543139,-0.554405,-63.1724,7.29798
1070,5.43148e+08,543148,-0.554209,-63.1722,7.29677
1071,5.43156e+08,543156,-0.553086,-63.1726,7.29506
1072,5.43164e+08,543164,-0.554579,-63.1726,7.29618
1073,5.43173e+08,543173,-0.555747,-63.172,7.29694
1074,5.43181e+08,543181,-0.555457,-63.172,7.29594
1075,5.43189e+08,543189,-0.555025,-63.173,7.29579
1076,5.43198e+08,543198,-0.553812,-63.1729,7.29433
1077,5.43206e+08,543206,-0.553816,-63.1728,7.29355
1078,5.43214e+08,543214,-0.554071,-63.1725,7.29349
1079,5.43223e+08,543223,-0.552993,-63.1724,7.29186
1080,5.43231e+08,543231,-0.552436,-63.1734,7.29146
1081,5.43239e+08,543239,-0.553014,-63.1735,7.291
1082,5.43248e+08,543248,-0.553811,-63.1734,7.29162
1083,5.43256e+08,543256,-0.551574,-63.1724,7.28904
1084,5.43264e+08,543264,-0.550789,-63.1722,7.28873
1085,5.43273e+08,543273,-0.550738,-63.1727,7.28779
1086,5.43281e+08,543281,-0.551034,-63.173,7.28831
1087,5.43289e+08,543289,-0.551948,-63.1728,7.28831
1088,5.43298e+08,543298,-0.55171,-63.173,7.2877
1089,5.43306e+08,543306,-0.550839,-63.1734,7.2858
1090,5.43314e+08,543314,-0.550154,-63.1741,7.285
1091,5.43323e+08,543323,-0.548969,-63.1747,7.28271
1092,5.43331e+08,543331,-0.547136,-63.1753,7.28104
1093,5.43339e+08,543339,-0.548581,-63.1747,7.28214
1094,5.43348e+08,543348,-0.549084,-63.1755,7.28264
1095,5.43356e+08,543356,-0.55186,-63.1749,7.28461
1096,5.43364e+08,543364,-0.549888,-63.1745,7.28325
1097,5.43373e+08,543373,-0.55045,-63.1751,7.28329
1098,5.43381e+08,543381,-0.548565,-63.1748,7.28129
1099,5.43389e+08,543389,-0.548251,-63.175,7.27998
1100,5.43398e+08,543398,-0.548848,-63.1742,7.28031
1101,5.43406e+08,543406,-0.54883,-63.1733,7.27965
1102,5.43414e+08,543414,-0.548358,-63.173,7.27883
1103,5.43423e+08,543423,-0.548769,-63.1725,7.2785
1104,5.43431e+08,543431,-0.548136,-63.1727,7.27796
1105,5.43439e+08,543439,-0.547602,-63.1723,7.2772
1106,5.43448e+08,543448,-0.54813,-63.1719,7.27789
1107,5.43456e+08,543456,-0.547444,-63.1728,7.27633
1108,5.43464e+08,543464,-0.546227,-63.1731,7.27485
1109,5.43473e+08,543473,-0.545987,-63.1737,7.27389
1110,5.43481e+08,543481,-0.547019,-63.1746,7.27471
1111,5.43489e+08,543489,-0.546108,-63.1747,7.27348
1112,5.43498e+08,543498,-0.545307,-63.1741,7.27338
1113,5.43506e+08,543506,-0.54526,-63.1754,7.27283
1114,5.43514e+08,543514,-0.544815,-63.1752,7.27237
1115,5.43523e+08,543523,-0.546027,-63.1751,7.27351
1116,5.43531e+08,543531,-0.546833,-63.174,7.27314
1117,5.43539e+08,543539,-0.546929,-63.1735,7.27255
1118,5.43548e+08,543548,-0.547193,-63.174,7.27278
1119,5.43556e+08,543556,-0.547115,-63.1736,7.27189
1120,5.43564e+08,543564,-0.546483,-63.1725,7.27076
1121,5.43573e+08,543573,-0.546945,-63.1717,7.27127
1122,5.43581e+08,543581,-0.546523,-63.1717,7.27066
1123,5.43589e+08,543589,-0.5477,-63.171,7.27132
1124,5.43598e+08,543598,-0.54892,-63.1705,7.27204
1125,5.43606e+08,543606,-0.549026,-63.1705,7.27174
1126,5.43614e+08,543614,-0.548477,-63.1698,7.27085
1127,5.43623e+08,543623,-0.549291,-63.17,7.27085
1128,5.43631e+08,543631,-0.547972,-63.1698,7.26877
1129,5.43639e+08,543639,-0.54672,-63.1705,7.26622
1130,5.43648e+08,543648,-0.547542,-63.1702,7.26657
1131,5.43656e+08,543656,-0.545573,-63.17,7.26308
1132,5.43664e+08,543664,-0.544187,-63.1705,7.262
1133,5.43673e+08,543673,-0.544529,-63.1701,7.26182
1134,5.43681e+08,543681,-0.544973,-63.17,7.26271
1135,5.43689e+08,543689,-0.544825,-63.1697,7.26314
1136,5.43698e+08,543698,-0.543998,-63.1691,7.26267
1137,5.43706e+08,543706,-0.545213,-63.1694,7.26316
1138,5.43714e+08,543714,-0.546538,-63.1688,7.26408
1139,5.43723e+08,543723,-0.547163,-63.1681,7.26445
1140,5.43731e+08,543731,-0.547625,-63.1682,7.26501
1141,5.43739e+08,543739,-0.549617,-63.1681,7.26641
1142,5.43748e+08,543748,-0.548553,-63.1674,7.26502
1143,5.43756e+08,543756,-0.548646,-63.1677,7.26522
1144,5.43764e+08,543764,-0.547995,-63.1677,7.2646
1145,5.43773e+08,543773,-0.549606,-63.168,7.26646
1146,5.43781e+08,543781,-0.551172,-63.1678,7.26775
1147,5.43789e+08,543789,-0.552199,-63.1674,7.26747
1148,5.43798e+08,543798,-0.552296,-63.1682,7.2679
1149,5.43806e+08,543806,-0.552451,-63.1684,7.26711
1150,5.43814e+08,543814,-0.550368,-63.1681,7.26483
1151,5.43823e+08,543823,-0.550557,-63.1675,7.26399
1152,5.43831e+08,543831,-0.551851,-63.1674,7.26592
1153,5.43839e+08,543839,-0.551478,-63.1682,7.26575
1154,5.43848e+08,543848,-0.551329,-63.1681,7.26585
1155,5.43856e+08,543856,-0.551167,-63.1682,7.26443
1156,5.43864e+08,543864,-0.550923,-63.168,7.26363
1157,5.43873e+08,543873,-0.551365,-63.1676,7.2634
1158,5.43881e+08,543881,-0.549692,-63.1666,7.26202
1159,5.43889e+08,543889,-0.550207,-63.1664,7.26222
1160,5.43898e+08,543898,-0.548418,-63.1665,7.26059
1161,5.43906e+08,543906,-0.548534,-63.1658,7.26028
1162,5.43914e+08,543914,-0.549126,-63.166,7.26139
1163,5.43923e+08,543923,-0.548238,-63.1661,7.26035
1164,5.43931e+08,543931,-0.548999,-63.1666,7.26114
1165,5.43939e+08,543939,-0.54946,-63.1676,7.26134
1166,5.43948e+08,543948,-0.548685,-63.1672,7.26118
1167,5.43956e+08,543956,-0.547362,-63.1668,7.25949
1168,5.43964e+08,543964,-0.548066,-63.166,7.25999
1169,5.43973e+08,543973,-0.547949,-63.1666,7.25895
1170,5.43981e+08,543981,-0.547275,-63.1667,7.25863
1171,5.43989e+08,543989,-0.546665,-63.1666,7.25829
1172,5.43998e+08,543998,-0.54689,-63.1667,7.25817
1173,5.44006e+08,544006,-0.545815,-63.1669,7.2564
1174,5.44014e+08,544014,-0.547136,-63.1671,7.25806
1175,5.44023e+08,544023,-0.54717,-63.1677,7.257
1176,5.44031e+08,544031,-0.545721,-63.1681,7.25611
1177,5.44039e+08,544039,-0.545827,-63.1689,7.2561
1178,5.44048e+08,544048,-0.545208,-63.1687,7.2555
1179,5.44056e+08,544056,-0.547128,-63.1692,7.25747
1180,5.44064e+08,544064,-0.546222,-63.1695,7.25716
1181,5.44073e+08,544073,-0.547891,-63.1709,7.25825
1182,5.44081e+08,544081,-0.546926,-63.1706,7.25738
1183,5.44089e+08,544089,-0.54698,-63.1706,7.25692
1184,5.44098e+08,544098,-0.54723,-63.1704,7.25714
1185,5.44106e+08,544106,-0.547412,-63.17,7.25617
1186,5.44114e+08,544114,-0.54774,-63.1693,7.25593
1187,5.44123e+08,544123,-0.547935,-63.169,7.25542
1188,5.44131e+08,544131,-0.54791,-63.1685,7.25525
1189,5.44139e+08,544139,-0.549358,-63.1689,7.25585
1190,5.44148e+08,544148,-0.550285,-63.1683,7.25712
1191,5.44156e+08,544156,-0.55106,-63.1691,7.25811
1192,5.44164e+08,544164,-0.55103,-63.1696,7.25799
1193,5.44173e+08,544173,-0.550939,-63.1695,7.25749
1194,5.44181e+08,544181,-0.550863,-63.1698,7.25713
1195,5.44189e+08,544189,-0.549937,-63.1697,7.25599
1196,5.44198e+08,544198,-0.550089,-63.1698,7.25581
1197,5.44206e+08,544206,-0.549087,-63.1698,7.25459
1198,5.44214e+08,544214,-0.54909,-63.1704,7.25416
1199,5.44223e+08,544223,-0.556003,-63.1671,7.26439
1200,5.44231e+08,544231,-0.557441,-63.1669,7.26537
1201,5.44239e+08,544239,-0.558384,-63.1676,7.26597
1202,5.44248e+08,544248,-0.559829,-63.168,7.26758
1203,5.44256e+08,544256,-0.560051,-63.1689,7.26776
1204,5.44264e+08,544264,-0.562248,-63.17,7.26962
1205,5.44273e+08,544273,-0.56318,-63.1699,7.27004
1206,5.44281e+08,544281,-0.563069,-63.1691,7.27041
1207,5.44289e+08,544289,-0.563507,-63.1695,7.26998
1208,5.44298e+08,544298,-0.563913,-63.1696,7.27009
1209,5.44306e+08,544306,-0.564226,-63.1694,7.26955
1210,5.44314e+08,544314,-0.563119,-63.1682,7.26869
1211,5.44323e+08,544323,-0.562213,-63.1679,7.26762
1212,5.44331e+08,544331,-0.562036,-63.1673,7.26748
1213,5.44339e+08,544339,-0.561578,-63.167,7.26648
1214,5.44348e+08,544348,-0.562068,-63.1668,7.26738
1215,5.44356e+08,544356,-0.56288,-63.1667,7.26705
1216,5.44364e+08,544364,-0.563352,-63.1675,7.26815
1217,5.44373e+08,544373,-0.562597,-63.1679,7.26695
1218,5.44381e+08,544381,-0.56267,-63.1675,7.267
1219,5.44389e+08,544389,-0.56152,-63.1669,7.26646
1220,5.44398e+08,544398,-0.560185,-63.1666,7.26478
1221,5.44406e+08,544406,-0.559946,-63.1668,7.26373
1222,5.44414e+08,544414,-0.5602,-63.1657,7.26345
1223,5.44423e+08,544423,-0.559001,-63.1653,7.26213
1224,5.44431e+08,544431,-0.560035,-63.1654,7.26296
1225,5.44439e+08,544439,-0.560973,-63.1646,7.26353
1226,5.44448e+08,544448,-0.561386,-63.1639,7.26383
1227,5.44456e+08,544456,-0.560962,-63.1643,7.26289
1228,5.44464e+08,544464,-0.56033,-63.1642,7.26247
1229,5.44473e+08,544473,-0.56073,-63.1648,7.26224
1230,5.44481e+08,544481,-0.559909,-63.1645,7.26115
1231,5.44489e+08,544489,-0.560934,-63.1649,7.26162
1232,5.44498e+08,544498,-0.560543,-63.1649,7.26158
1233,5.44506e+08,544506,-0.55985,-63.1653,7.26034
1234,5.44514e+08,544514,-0.560008,-63.1657,7.25988
1235,5.44523e+08,544523,-0.562249,-63.1658,7.26138
1236,5.44531e+08,544531,-0.563825,-63.1662,7.26305
1237,5.44539e+08,544539,-0.563535,-63.1663,7.26196
1238,5.44548e+08,544548,-0.564223,-63.1657,7.26328
1239,5.44556e+08,544556,-0.562696,-63.1652,7.26131
1240,5.44564e+08,544564,-0.561516,-63.1653,7.25957
1241,5.44573e+08,544573,-0.560241,-63.1643,7.25773
1242,5.44581e+08,544581,-0.559811,-63.1646,7.25738
1243,5.44589e+08,544589,-0.561223,-63.1642,7.25802
1244,5.44598e+08,544598,-0.561143,-63.164,7.25726
1245,5.44606e+08,544606,-0.562349,-63.1644,7.25744
1246,5.44614e+08,544614,-0.562059,-63.1641,7.25723
1247,5.44623e+08,544623,-0.561146,-63.1646,7.25611
1248,5.44631e+08,544631,-0.559874,-63.1656,7.25464
1249,5.44639e+08,544639,-0.559523,-63.1661,7.25438
1250,5.44648e+08,544648,-0.56037,-63.1656,7.2562
1251,5.44656e+08,544656,-0.5604,-63.1655,7.25575
1252,5.44664e+08,544664,-0.561854,-63.1644,7.25704
1253,5.44673e+08,544673,-0.560635,-63.1648,7.25607
1254,5.44681e+08,544681,-0.56162,-63.1652,7.25627
1255,5.44689e+08,544689,-0.561781,-63.1653,7.25634
1256,5.44698e+08,544698,-0.560989,-63.1654,7.25505
1257,5.44706e+08,544706,-0.56047,-63.1653,7.25436
1258,5.44714e+08,544714,-0.560542,-63.1644,7.25494
1259,5.44723e+08,544723,-0.560792,-63.1639,7.25528
1260,5.44731e+08,544731,-0.559798,-63.1633,7.25372
1261,5.44739e+08,544739,-0.558496,-63.1637,7.25208
1262,5.44748e+08,544748,-0.557391,-63.1636,7.25047
1263,5.44756e+08,544756,-0.558108,-63.1636,7.25085
1264,5.44764e+08,544764,-0.55799,-63.164,7.25058
1265,5.44773e+08,544773,-0.558418,-63.1638,7.24996
1266,5.44781e+08,544781,-0.558063,-63.1644,7.24921
1267,5.44789e+08,544789,-0.559124,-63.1642,7.24872
1268,5.44798e+08,544798,-0.558725,-63.1642,7.24812
1269,5.44806e+08,544806,-0.557832,-63.1638,7.2466
1270,5.44814e+08,544814,-0.555657,-63.1636,7.24464
1271,5.44823e+08,544823,-0.556572,-63.1631,7.24513
1272,5.44831e+08,544831,-0.556566,-63.1632,7.24564
1273,5.44839e+08,544839,-0.55802,-63.1629,7.24601
1274,5.44848e+08,544848,-0.557653,-63.1631,7.24425
1275,5.44856e+08,544856,-0.557119,-63.1625,7.2435
1276,5.44864e+08,544864,-0.5575,-63.1621,7.24403
1277,5.44873e+08,544873,-0.558018,-63.1624,7.24399
1278,5.44881e+08,544881,-0.559077,-63.1624,7.24492
1279,5.44889e+08,544889,-0.559608,-63.1615,7.24449
1280,5.44898e+08,544898,-0.560698,-63.1606,7.24549
1281,5.44906e+08,544906,-0.560856,-63.1601,7.246
1282,5.44914e+08,544914,-0.562107,-63.1598,7.24722
1283,5.44923e+08,544923,-0.56259,-63.1602,7.24695
1284,5.44931e+08,544931,-0.56216,-63.1603,7.24675
1285,5.44939e+08,544939,-0.562437,-63.1611,7.24642
1286,5.44948e+08,544948,-0.563407,-63.1612,7.24726
1287,5.44956e+08,544956,-0.562199,-63.1604,7.24626
1288,5.44964e+08,544964,-0.562924,-63.1605,7.24681
1289,5.44973e+08,544973,-0.562867,-63.1602,7.24712
1290,5.44981e+08,544981,-0.563314,-63.1606,7.24696
1291,5.44989e+08,544989,-0.562703,-63.1615,7.24553
1292,5.44998e+08,544998,-0.562822,-63.1615,7.24581
1293,5.45006e+08,545006,-0.563978,-63.1607,7.24664
1294,5.45014e+08,545014,-0.564675,-63.161,7.24684
1295,5.45023e+08,545023,-0.565147,-63.1612,7.24704
1296,5.45031e+08,545031,-0.565274,-63.1607,7.24731
1297,5.45039e+08,545039,-0.565292,-63.1608,7.24607
1298,5.45048e+08,545048,-0.565563,-63.161,7.24643
1299,5.45056e+08,545056,-0.565385,-63.1608,7.24572
1300,5.45064e+08,545064,-0.565902,-63.1606,7.2457
1301,5.45073e+08,545073,-0.565817,-63.1616,7.24578
1302,5.45081e+08,545081,-0.564749,-63.1625,7.24492
1303,5.45089e+08,545089,-0.564502,-63.1633,7.24443
1304,5.45098e+08,545098,-0.565,-63.1633,7.2455
1305,5.45106e+08,545106,-0.565431,-63.163,7.24501
1306,5.45114e+08,545114,-0.564368,-63.1625,7.24406
1307,5.45123e+08,545123,-0.564297,-63.1621,7.24425
1308,5.45131e+08,545131,-0.564808,-63.1614,7.24437
1309,5.45139e+08,545139,-0.566043,-63.1619,7.24435
1310,5.45148e+08,545148,-0.566707,-63.1622,7.24522
1311,5.45156e+08,545156,-0.56607,-63.1625,7.24418
1312,5.45164e+08,545164,-0.565293,-63.163,7.24385
1313,5.45173e+08,545173,-0.566489,-63.1629,7.24471
1314,5.45181e+08,545181,-0.566404,-63.1635,7.2444
1315,5.45189e+08,545189,-0.566566,-63.1632,7.24435
1316,5.45198e+08,545198,-0.567948,-63.1628,7.24661
1317,5.45206e+08,545206,-0.567924,-63.1632,7.24697
1318,5.45214e+08,545214,-0.568076,-63.1635,7.2477
1319,5.45222e+08,545222,-0.56874,-63.1634,7.24815
1320,5.45231e+08,545231,-0.568952,-63.1628,7.24847
1321,5.45239e+08,545239,-0.568983,-63.1628,7.24835
1322,5.45247e+08,545247,-0.568772,-63.1628,7.24859
1323,5.45256e+08,545256,-0.56756,-63.1616,7.24703
1324,5.45264e+08,545264,-0.568297,-63.162,7.24814
1325,5.45272e+08,545272,-0.568084,-63.1619,7.24722
1326,5.45281e+08,545281,-0.569108,-63.1616,7.2483
1327,5.45289e+08,545289,-0.569774,-63.1615,7.24867
1328,5.45297e+08,545297,-0.570141,-63.1623,7.24928
1329,5.45306e+08,545306,-0.571353,-63.1623,7.24983
1330,5.45314e+08,545314,-0.572291,-63.1625,7.25114
1331,5.45322e+08,545322,-0.571543,-63.162,7.24988
1332,5.45331e+08,545331,-0.571557,-63.1618,7.25047
1333,5.45339e+08,545339,-0.571111,-63.1619,7.24978
1334,5.45347e+08,545347,-0.568452,-63.162,7.24795
1335,5.45356e+08,545356,-0.569802,-63.1612,7.24864
1336,5.45364e+08,545364,-0.570972,-63.1604,7.24979
1337,5.45372e+08,545372,-0.571236,-63.1606,7.24996
1338,5.45381e+08,545381,-0.570574,-63.1602,7.24938
1339,5.45389e+08,545389,-0.570399,-63.1606,7.24895
1340,5.45397e+08,545397,-0.571753,-63.161,7.25051
1341,5.45406e+08,545406,-0.572027,-63.1612,7.25021
1342,5.45414e+08,545414,-0.570883,-63.1612,7.24908
1343,5.45422e+08,545422,-0.57121,-63.161,7.24856
1344,5.45431e+08,545431,-0.570221,-63.1596,7.247
1345,5.45439e+08,545439,-0.570378,-63.1596,7.24646
1346,5.45447e+08,545447,-0.570395,-63.1592,7.24693
1347,5.45456e+08,545456,-0.569674,-63.1585,7.2459
1348,5.45464e+08,545464,-0.568514,-63.1579,7.24451
1349,5.45472e+08,545472,-0.56943,-63.1585,7.24586
1350,5.45481e+08,545481,-0.570627,-63.1584,7.24675
1351,5.45489e+08,545489,-0.57204,-63.1593,7.24743
1352,5.45497e+08,545497,-0.572051,-63.16,7.24756
1353,5.45506e+08,545506,-0.571614,-63.1589,7.24681
1354,5.45514e+08,545514,-0.570616,-63.1594,7.24645
1355,5.45522e+08,545522,-0.570233,-63.1591,7.24494
1356,5.45531e+08,545531,-0.569781,-63.1581,7.2452
1357,5.45539e+08,545539,-0.569663,-63.1586,7.24502
1358,5.45547e+08,545547,-0.568955,-63.1595,7.24489
1359,5.45556e+08,545556,-0.567172,-63.1596,7.24208
1360,5.45564e+08,545564,-0.566707,-63.16,7.24213
1361,5.45572e+08,545572,-0.566771,-63.16,7.24123
1362,5.45581e+08,545581,-0.567374,-63.1592,7.24262
1363,5.45589e+08,545589,-0.566619,-63.1601,7.24186
1364,5.45597e+08,545597,-0.565819,-63.1603,7.24097
1365,5.45606e+08,545606,-0.565799,-63.1594,7.24003
1366,5.45614e+08,545614,-0.567423,-63.1593,7.24142
1367,5.45622e+08,545622,-0.567223,-63.1591,7.24072
1368,5.45631e+08,545631,-0.567579,-63.1591,7.24076
1369,5.45639e+08,545639,-0.566115,-63.159,7.23926
1370,5.45647e+08,545647,-0.566948,-63.1594,7.23958
1371,5.45656e+08,545656,-0.565304,-63.1586,7.23803
1372,5.45664e+08,545664,-0.565384,-63.1584,7.23826
1373,5.45672e+08,545672,-0.565427,-63.1585,7.23726
1374,5.45681e+08,545681,-0.563762,-63.1594,7.23567
1375,5.45689e+08,545689,-0.562869,-63.1598,7.23434
1376,5.45697e+08,545697,-0.563664,-63.1596,7.2357
1377,5.45706e+08,545706,-0.5643,-63.1594,7.23612
1378,5.45714e+08,545714,-0.563534,-63.1589,7.236
1379,5.45722e+08,545722,-0.563684,-63.1595,7.23579
1380,5.45731e+08,545731,-0.563394,-63.1594,7.23608
1381,5.45739e+08,545739,-0.562348,-63.1593,7.23528
1382,5.45747e+08,545747,-0.563349,-63.1593,7.23636
1383,5.45756e+08,545756,-0.562152,-63.1597,7.23505
1384,5.45764e+08,545764,-0.562837,-63.1597,7.2364
1385,5.45772e+08,545772,-0.562799,-63.16,7.23566
1386,5.45781e+08,545781,-0.56269,-63.1598,7.23601
1387,5.45789e+08,545789,-0.563322,-63.1594,7.23626
1388,5.45797e+08,545797,-0.563199,-63.1596,7.23566
1389,5.45806e+08,545806,-0.564811,-63.1599,7.23755
1390,5.45814e+08,545814,-0.564524,-63.1597,7.23691
1391,5.45822e+08,545822,-0.563997,-63.1603,7.23522
1392,5.45831e+08,545831,-0.563098,-63.1603,7.23462
1393,5.45839e+08,545839,-0.564533,-63.1606,7.23445
1394,5.45847e+08,545847,-0.564386,-63.1607,7.23489
1395,5.45856e+08,545856,-0.564658,-63.1607,7.2345
1396,5.45864e+08,545864,-0.565776,-63.1607,7.23602
1397,5.45872e+08,545872,-0.565891,-63.1605,7.2361
1398,5.45881e+08,545881,-0.566316,-63.161,7.23634
1399,5.45889e+08,545889,-0.566365,-63.1603,7.23645
1400,5.45897e+08,545897,-0.564255,-63.1602,7.23484
1401,5.45906e+08,545906,-0.563839,-63.1595,7.23414
1402,5.45914e+08,545914,-0.564354,-63.16,7.23456
1403,5.45922e+08,545922,-0.56609,-63.1601,7.23503
1404,5.45931e+08,545931,-0.564777,-63.1609,7.23378
1405,5.45939e+08,545939,-0.565165,-63.1602,7.23329
1406,5.45947e+08,545947,-0.564987,-63.1607,7.23299
1407,5.45956e+08,545956,-0.563294,-63.1605,7.23129
1408,5.45964e+08,545964,-0.563245,-63.1613,7.23171
1409,5.45972e+08,545972,-0.563732,-63.1613,7.23208
1410,5.45981e+08,545981,-0.562055,-63.1612,7.23024
1411,5.45989e+08,545989,-0.562947,-63.1606,7.23062
1412,5.45997e+08,545997,-0.562586,-63.1607,7.23036
1413,5.46006e+08,546006,-0.563347,-63.1608,7.23111
1414,5.46014e+08,546014,-0.562941,-63.1605,7.23039
1415,5.46022e+08,546022,-0.564337,-63.1606,7.23152
1416,5.46031e+08,546031,-0.56339,-63.1619,7.23105
1417,5.46039e+08,546039,-0.563668,-63.1619,7.23164
1418,5.46047e+08,546047,-0.562278,-63.1616,7.2301
1419,5.46056e+08,546056,-0.56227,-63.1609,7.22945
1420,5.46064e+08,546064,-0.561769,-63.1607,7.2291
1421,5.46072e+08,546072,-0.56222,-63.161,7.23006
1422,5.46081e+08,546081,-0.562103,-63.1615,7.23004
1423,5.46089e+08,546089,-0.561254,-63.1612,7.22833
1424,5.46097e+08,546097,-0.560303,-63.1612,7.2275
1425,5.46106e+08,546106,-0.560433,-63.1613,7.22749
1426,5.46114e+08,546114,-0.560717,-63.161,7.22802
1427,5.46122e+08,546122,-0.561166,-63.1612,7.22749
1428,5.46131e+08,546131,-0.562435,-63.161,7.2286
1429,5.46139e+08,546139,-0.561189,-63.1612,7.22693
1430,5.46147e+08,546147,-0.561054,-63.1621,7.22656
1431,5.46156e+08,546156,-0.562695,-63.1623,7.22741
1432,5.46164e+08,546164,-0.565451,-63.1615,7.22974
1433,5.46172e+08,546172,-0.566033,-63.1608,7.22978
1434,5.46181e+08,546181,-0.566138,-63.1605,7.22892
1435,5.46189e+08,546189,-0.567013,-63.1613,7.23019
1436,5.46197e+08,546197,-0.566959,-63.1622,7.23063
1437,5.46206e+08,546206,-0.567776,-63.1616,7.23133
1438,5.46214e+08,546214,-0.567761,-63.1609,7.23143
1439,5.46222e+08,546222,-0.561151,-63.1649,7.22407
1440,5.46231e+08,546231,-0.559797,-63.1658,7.22278
1441,5.46239e+08,546239,-0.560691,-63.1656,7.22373
1442,5.46247e+08,546247,-0.561638,-63.165,7.22445
1443,5.46256e+08,546256,-0.561446,-63.1647,7.22451
1444,5.46264e+08,546264,-0.560547,-63.1648,7.22348
1445,5.46272e+08,546272,-0.55883,-63.1653,7.22158
1446,5.46281e+08,546281,-0.559947,-63.1657,7.22213
1447,5.46289e+08,546289,-0.559086,-63.1658,7.22086
1448,5.46297e+08,546297,-0.559885,-63.1658,7.22153
1449,5.46306e+08,546306,-0.559032,-63.1659,7.22011
1450,5.46314e+08,546314,-0.558667,-63.1656,7.21925
1451,5.46322e+08,546322,-0.558746,-63.1655,7.21784
1452,5.46331e+08,546331,-0.55894,-63.1662,7.21745
1453,5.46339e+08,546339,-0.559998,-63.1659,7.21835
1454,5.46347e+08,546347,-0.560738,-63.1662,7.21935
1455,5.46356e+08,546356,-0.559167,-63.1666,7.21682
1456,5.46364e+08,546364,-0.559574,-63.1658,7.21737
1457,5.46372e+08,546372,-0.559496,-63.1653,7.21758
1458,5.46381e+08,546381,-0.560353,-63.1659,7.21827
1459,5.46389e+08,546389,-0.559761,-63.1663,7.21724
1460,5.46397e+08,546397,-0.558749,-63.1662,7.21626
1461,5.46406e+08,546406,-0.559008,-63.166,7.21528
1462,5.46414e+08,546414,-0.560259,-63.1662,7.21559
1463,5.46422e+08,546422,-0.562434,-63.1666,7.2179
1464,5.46431e+08,546431,-0.563772,-63.1664,7.21857
1465,5.46439e+08,546439,-0.561552,-63.1661,7.21704
1466,5.46447e+08,546447,-0.561691,-63.1657,7.21806
1467,5.46456e+08,546456,-0.56356,-63.1654,7.21917
1468,5.46464e+08,546464,-0.565779,-63.1653,7.22121
1469,5.46472e+08,546472,-0.565577,-63.1652,7.22054
1470,5.46481e+08,546481,-0.565141,-63.1648,7.22004
1471,5.46489e+08,546489,-0.565203,-63.1651,7.21966
1472,5.46497e+08,546497,-0.564314,-63.1652,7.21829
1473,5.46506e+08,546506,-0.563112,-63.1661,7.21643
1474,5.46514e+08,546514,-0.56395,-63.1664,7.21684
1475,5.46522e+08,546522,-0.565953,-63.1655,7.21827
1476,5.46531e+08,546531,-0.565326,-63.1656,7.21829
1477,5.46539e+08,546539,-0.563375,-63.1654,7.21652
1478,5.46547e+08,546547,-0.561757,-63.1657,7.21517
1479,5.46556e+08,546556,-0.561308,-63.1655,7.21492
1480,5.46564e+08,546564,-0.560131,-63.1652,7.21374
1481,5.46572e+08,546572,-0.559638,-63.1649,7.21232
1482,5.46581e+08,546581,-0.559548,-63.1644,7.21245
1483,5.46589e+08,546589,-0.561089,-63.1637,7.21294
1484,5.46597e+08,546597,-0.55987,-63.1635,7.21068
1485,5.46606e+08,546606,-0.561014,-63.1632,7.21128
1486,5.46614e+08,546614,-0.562402,-63.1635,7.21338
1487,5.46622e+08,546622,-0.562659,-63.164,7.21406
1488,5.46631e+08,546631,-0.561072,-63.1634,7.21301
1489,5.46639e+08,546639,-0.562817,-63.1632,7.21399
1490,5.46647e+08,546647,-0.56341,-63.1627,7.21519
1491,5.46656e+08,546656,-0.56335,-63.1623,7.2148
1492,5.46664e+08,546664,-0.563622,-63.1622,7.2152
1493,5.46672e+08,546672,-0.564035,-63.1624,7.21532
1494,5.46681e+08,546681,-0.564286,-63.1622,7.21577
1495,5.46689e+08,546689,-0.563494,-63.1618,7.2143
1496,5.46697e+08,546697,-0.564187,-63.161,7.21476
1497,5.46706e+08,546706,-0.564728,-63.1613,7.21476
1498,5.46714e+08,546714,-0.566472,-63.161,7.21605
1499,5.46722e+08,546722,-0.567547,-63.1601,7.21602
1500,5.46731e+08,546731,-0.568884,-63.1603,7.21732
1501,5.46739e+08,546739,-0.568234,-63.1602,7.21689
1502,5.46747e+08,546747,-0.568782,-63.1595,7.2176
1503,5.46756e+08,546756,-0.568103,-63.1597,7.21672
1504,5.46764e+08,546764,-0.569042,-63.1603,7.2179
1505,5.46772e+08,546772,-0.569681,-63.1596,7.21786
1506,5.46781e+08,546781,-0.571775,-63.1593,7.21967
1507,5.46789e+08,546789,-0.571414,-63.1598,7.21866
1508,5.46797e+08,546797,-0.571209,-63.1601,7.21782
1509,5.46806e+08,546806,-0.571865,-63.16,7.21765
1510,5.46814e+08,546814,-0.570631,-63.1598,7.21645
1511,5.46822e+08,546822,-0.571131,-63.1601,7.21665
1512,5.46831e+08,546831,-0.57101,-63.1604,7.21668
1513,5.46839e+08,546839,-0.569822,-63.1609,7.21541
1514,5.46847e+08,546847,-0.570939,-63.1601,7.21686
1515,5.46856e+08,546856,-0.573442,-63.1595,7.21896
1516,5.46864e+08,546864,-0.573122,-63.1593,7.21897
1517,5.46872e+08,546872,-0.572184,-63.16,7.21756
1518,5.46881e+08,546881,-0.571936,-63.1605,7.21719
1519,5.46889e+08,546889,-0.571183,-63.1607,7.2159
1520,5.46897e+08,546897,-0.570287,-63.1613,7.21473
1521,5.46906e+08,546906,-0.570578,-63.161,7.21397
1522,5.46914e+08,546914,-0.570471,-63.161,7.21436
1523,5.46922e+08,546922,-0.57042,-63.1609,7.21477
1524,5.46931e+08,546931,-0.570627,-63.1614,7.21482
1525,5.46939e+08,546939,-0.571345,-63.1615,7.21554
1526,5.46947e+08,546947,-0.569457,-63.1611,7.214
1527,5.46956e+08,546956,-0.568919,-63.1609,7.21356
1528,5.46964e+08,546964,-0.56921,-63.1617,7.21417
1529,5.46972e+08,546972,-0.569585,-63.1624,7.21415
1530,5.46981e+08,546981,-0.568292,-63.1627,7.21308
1531,5.46989e+08,546989,-0.56858,-63.1627,7.21357
1532,5.46997e+08,546997,-0.568584,-63.163,7.21353
1533,5.47006e+08,547006,-0.569764,-63.162,7.21398
1534,5.47014e+08,547014,-0.569966,-63.162,7.2144
1535,5.47022e+08,547022,-0.569858,-63.1617,7.21335
1536,5.47031e+08,547031,-0.568339,-63.1614,7.21188
1537,5.47039e+08,547039,-0.568757,-63.1612,7.21104
1538,5.47047e+08,547047,-0.5688,-63.1613,7.21095
1539,5.47056e+08,547056,-0.569448,-63.1609,7.2108
1540,5.47064e+08,547064,-0.571452,-63.1604,7.21227
1541,5.47072e+08,547072,-0.571631,-63.1604,7.21324
1542,5.47081e+08,547081,-0.571017,-63.16,7.21281
1543,5.47089e+08,547089,-0.571436,-63.1597,7.21306
1544,5.47097e+08,547097,-0.572225,-63.1597,7.21373
1545,5.47106e+08,547106,-0.571074,-63.1601,7.21217
1546,5.47114e+08,547114,-0.570638,-63.1595,7.2122
1547,5.47122e+08,547122,-0.571096,-63.1586,7.21166
1548,5.47131e+08,547131,-0.571105,-63.1578,7.2122
1549,5.47139e+08,547139,-0.5726,-63.1575,7.21394
1550,5.47147e+08,547147,-0.570861,-63.1582,7.21312
1551,5.47156e+08,547156,-0.569731,-63.1587,7.21164
1552,5.47164e+08,547164,-0.569249,-63.1587,7.211
1553,5.47172e+08,547172,-0.569092,-63.1598,7.21027
1554,5.47181e+08,547181,-0.568959,-63.1594,7.20935
1555,5.47189e+08,547189,-0.568999,-63.1596,7.20867
1556,5.47197e+08,547197,-0.568079,-63.1592,7.20708
1557,5.47206e+08,547206,-0.567795,-63.1594,7.2064
1558,5.47214e+08,547214,-0.568265,-63.1584,7.2067
1559,5.47222e+08,547222,-0.567379,-63.1585,7.20491
1560,5.47231e+08,547231,-0.56562,-63.1586,7.20337
1561,5.47239e+08,547239,-0.565935,-63.1592,7.20328
1562,5.47247e+08,547247,-0.565777,-63.1593,7.20342
1563,5.47256e+08,547256,-0.5658,-63.1593,7.2023
1564,5.47264e+08,547264,-0.565818,-63.1597,7.20262
1565,5.47272e+08,547272,-0.565793,-63.1601,7.20246
1566,5.47281e+08,547281,-0.567757,-63.1612,7.20405
1567,5.47289e+08,547289,-0.569017,-63.1612,7.20488
1568,5.47297e+08,547297,-0.568909,-63.161,7.20465
1569,5.47306e+08,547306,-0.569278,-63.1614,7.20453
1570,5.47314e+08,547314,-0.567792,-63.1609,7.20322
1571,5.47322e+08,547322,-0.568336,-63.1604,7.20361
1572,5.47331e+08,547331,-0.568052,-63.1611,7.20344
1573,5.47339e+08,547339,-0.566978,-63.161,7.20252
1574,5.47347e+08,547347,-0.566947,-63.161,7.20229
1575,5.47356e+08,547356,-0.565265,-63.1615,7.20125
1576,5.47364e+08,547364,-0.563644,-63.1612,7.20058
1577,5.47372e+08,547372,-0.563405,-63.1618,7.20054
1578,5.47381e+08,547381,-0.565047,-63.1612,7.20233
1579,5.47389e+08,547389,-0.565542,-63.1606,7.20404
1580,5.47397e+08,547397,-0.565739,-63.1609,7.20481
1581,5.47406e+08,547406,-0.565579,-63.1599,7.20445
1582,5.47414e+08,547414,-0.56532,-63.1601,7.2046
1583,5.47422e+08,547422,-0.565231,-63.1598,7.20442
1584,5.47431e+08,547431,-0.565186,-63.159,7.20527
1585,5.47439e+08,547439,-0.564652,-63.1587,7.20449
1586,5.47447e+08,547447,-0.565759,-63.1592,7.20483
1587,5.47456e+08,547456,-0.566875,-63.159,7.2057
1588,5.47464e+08,547464,-0.567659,-63.1589,7.20653
1589,5.47472e+08,547472,-0.569693,-63.1598,7.20789
1590,5.47481e+08,547481,-0.569599,-63.1607,7.20784
1591,5.47489e+08,547489,-0.570488,-63.1608,7.2086
1592,5.47497e+08,547497,-0.568578,-63.1604,7.20696
1593,5.47506e+08,547506,-0.56768,-63.1603,7.20537
1594,5.47514e+08,547514,-0.56801,-63.16,7.20533
1595,5.47522e+08,547522,-0.567235,-63.1601,7.20455
1596,5.47531e+08,547531,-0.566926,-63.1602,7.20437
1597,5.47539e+08,547539,-0.567259,-63.1598,7.20534
1598,5.47547e+08,547547,-0.567286,-63.1603,7.20589
1599,5.47556e+08,547556,-0.567709,-63.1599,7.20627
1600,5.47564e+08,547564,-0.568331,-63.1591,7.20731
1601,5.47572e+08,547572,-0.57021,-63.1588,7.20899
1602,5.47581e+08,547581,-0.569209,-63.1581,7.20857
1603,5.47589e+08,547589,-0.568241,-63.1578,7.20681
1604,5.47597e+08,547597,-0.566104,-63.158,7.20442
1605,5.47606e+08,547606,-0.567184,-63.158,7.20543
1606,5.47614e+08,547614,-0.567594,-63.1579,7.20647
1607,5.47622e+08,547622,-0.5675,-63.1579,7.20548
1608,5.47631e+08,547631,-0.567531,-63.1579,7.20557
1609,5.47639e+08,547639,-0.567517,-63.158,7.20528
1610,5.47647e+08,547647,-0.566786,-63.1588,7.20463
1611,5.47656e+08,547656,-0.567645,-63.1593,7.20495
1612,5.47664e+08,547664,-0.567045,-63.1595,7.20467
1613,5.47672e+08,547672,-0.566974,-63.1593,7.20454
1614,5.47681e+08,547681,-0.566983,-63.1598,7.20469
1615,5.47689e+08,547689,-0.565039,-63.1604,7.20221
1616,5.47697e+08,547697,-0.564162,-63.1599,7.20201
1617,5.47706e+08,547706,-0.563248,-63.1601,7.19987
1618,5.47714e+08,547714,-0.560458,-63.1604,7.19761
1619,5.47722e+08,547722,-0.560215,-63.161,7.19798
1620,5.47731e+08,547731,-0.560528,-63.1601,7.1983
1621,5.47739e+08,547739,-0.561398,-63.1604,7.19879
1622,5.47747e+08,547747,-0.560691,-63.1604,7.1975
1623,5.47756e+08,547756,-0.561598,-63.1605,7.19854
1624,5.47764e+08,547764,-0.560547,-63.161,7.19763
1625,5.47772e+08,547772,-0.559505,-63.1617,7.19634
1626,5.47781e+08,547781,-0.55926,-63.1616,7.19509
1627,5.47789e+08,547789,-0.55958,-63.1618,7.19462
1628,5.47797e+08,547797,-0.560036,-63.162,7.19391
1629,5.47806e+08,547806,-0.55868,-63.1623,7.1927
1630,5.47814e+08,547814,-0.559503,-63.1623,7.19412
1631,5.47822e+08,547822,-0.558368,-63.163,7.19324
1632,5.47831e+08,547831,-0.558028,-63.1625,7.19303
1633,5.47839e+08,547839,-0.557963,-63.1623,7.19293
1634,5.47847e+08,547847,-0.557581,-63.1629,7.19238
1635,5.47856e+08,547856,-0.557418,-63.163,7.19139
1636,5.47864e+08,547864,-0.558724,-63.1621,7.19196
1637,5.47872e+08,547872,-0.558335,-63.1614,7.19176
1638,5.47881e+08,547881,-0.558348,-63.1608,7.19152
1639,5.47889e+08,547889,-0.558285,-63.1611,7.19098
1640,5.47897e+08,547897,-0.559099,-63.161,7.19027
1641,5.47906e+08,547906,-0.559454,-63.1609,7.19034
1642,5.47914e+08,547914,-0.559118,-63.1612,7.1906
1643,5.47922e+08,547922,-0.561378,-63.1616,7.19259
1644,5.47931e+08,547931,-0.560956,-63.1614,7.19187
1645,5.47939e+08,547939,-0.560711,-63.1617,7.19204
1646,5.47947e+08,547947,-0.562456,-63.1618,7.19378
1647,5.47956e+08,547956,-0.561759,-63.1619,7.19364
1648,5.47964e+08,547964,-0.562662,-63.1618,7.19363
1649,5.47972e+08,547972,-0.560675,-63.1621,7.19137
1650,5.47981e+08,547981,-0.55986,-63.1623,7.19008
1651,5.47989e+08,547989,-0.55918,-63.162,7.18902
1652,5.47997e+08,547997,-0.559531,-63.1619,7.18941
1653,5.48006e+08,548006,-0.560883,-63.1616,7.1904
1654,5.48014e+08,548014,-0.561604,-63.1613,7.19153
1655,5.48022e+08,548022,-0.5613,-63.161,7.19126
1656,5.48031e+08,548031,-0.562445,-63.1617,7.19266
1657,5.48039e+08,548039,-0.563468,-63.1623,7.19324
1658,5.48047e+08,548047,-0.561861,-63.162,7.19128
1659,5.48056e+08,548056,-0.560647,-63.1624,7.19071
1660,5.48064e+08,548064,-0.559455,-63.1622,7.19075
1661,5.48072e+08,548072,-0.560283,-63.162,7.19104
1662,5.48081e+08,548081,-0.560432,-63.162,7.19111
1663,5.48089e+08,548089,-0.561164,-63.1616,7.19187
1664,5.48097e+08,548097,-0.561512,-63.162,7.19111
1665,5.48106e+08,548106,-0.561218,-63.1616,7.19066
1666,5.48114e+08,548114,-0.562436,-63.1614,7.19207
1667,5.48122e+08,548122,-0.563169,-63.1616,7.19272
1668,5.48131e+08,548131,-0.563467,-63.1614,7.19273
1669,5.48139e+08,548139,-0.563043,-63.1615,7.19203
1670,5.48147e+08,548147,-0.561893,-63.161,7.19116
1671,5.48156e+08,548156,-0.562271,-63.1605,7.19191
1672,5.48164e+08,548164,-0.562557,-63.1615,7.19301
1673,5.48172e+08,548172,-0.5622,-63.1613,7.19274
1674,5.48181e+08,548181,-0.562537,-63.1605,7.19255
1675,5.48189e+08,548189,-0.564357,-63.1595,7.1939
1676,5.48197e+08,548197,-0.565469,-63.1588,7.19555
1677,5.48206e+08,548206,-0.565451,-63.1588,7.19554
1678,5.48214e+08,548214,-0.565754,-63.1591,7.19487
1679,5.48222e+08,548222,-0.563792,-63.1628,7.19001
1680,5.48231e+08,548231,-0.563668,-63.1633,7.19001
1681,5.48239e+08,548239,-0.565707,-63.1628,7.19082
1682,5.48247e+08,548247,-0.564708,-63.1626,7.19033
1683,5.48256e+08,548256,-0.566756,-63.1633,7.19138
1684,5.48264e+08,548264,-0.566551,-63.1629,7.19118
1685,5.48272e+08,548272,-0.567461,-63.1632,7.19223
1686,5.48281e+08,548281,-0.568118,-63.1638,7.19256
1687,5.48289e+08,548289,-0.567788,-63.1632,7.19144
1688,5.48297e+08,548297,-0.568082,-63.164,7.19141
1689,5.48306e+08,548306,-0.56664,-63.1648,7.18959
1690,5.48314e+08,548314,-0.566253,-63.1645,7.18864
1691,5.48322e+08,548322,-0.5667,-63.1645,7.18911
1692,5.48331e+08,548331,-0.566023,-63.1638,7.18791
1693,5.48339e+08,548339,-0.567403,-63.1634,7.18867
1694,5.48347e+08,548347,-0.567701,-63.1632,7.1891
1695,5.48356e+08,548356,-0.568449,-63.1631,7.18892
1696,5.48364e+08,548364,-0.568167,-63.1629,7.18851
1697,5.48372e+08,548372,-0.568118,-63.163,7.18825
1698,5.48381e+08,548381,-0.56657,-63.163,7.18683
1699,5.48389e+08,548389,-0.566398,-63.1626,7.1872
1700,5.48397e+08,548397,-0.566377,-63.1622,7.18689
1701,5.48406e+08,548406,-0.566968,-63.1629,7.18721
1702,5.48414e+08,548414,-0.566402,-63.163,7.18702
1703,5.48422e+08,548422,-0.567356,-63.1632,7.1876
1704,5.48431e+08,548431,-0.568179,-63.1633,7.18792
1705,5.48439e+08,548439,-0.566239,-63.1641,7.18691
1706,5.48447e+08,548447,-0.566464,-63.1646,7.188
1707,5.48456e+08,548456,-0.567373,-63.1645,7.18758
1708,5.48464e+08,548464,-0.568703,-63.1646,7.18957
1709,5.48472e+08,548472,-0.568626,-63.1654,7.18882
1710,5.48481e+08,548481,-0.56709,-63.1659,7.18761
1711,5.48489e+08,548489,-0.566068,-63.1665,7.18703
1712,5.48497e+08,548497,-0.566851,-63.1656,7.18797
1713,5.48506e+08,548506,-0.56662,-63.1656,7.18822
1714,5.48514e+08,548514,-0.566223,-63.1658,7.18809
1715,5.48522e+08,548522,-0.565594,-63.1661,7.18669
1716,5.48531e+08,548531,-0.565593,-63.1654,7.18682
1717,5.48539e+08,548539,-0.56639,-63.1653,7.18712
1718,5.48547e+08,548547,-0.564784,-63.1657,7.18585
1719,5.48556e+08,548556,-0.566254,-63.1662,7.18712
1720,5.48564e+08,548564,-0.566619,-63.166,7.18754
1721,5.48572e+08,548572,-0.567318,-63.1659,7.18797
1722,5.48581e+08,548581,-0.567577,-63.1661,7.18802
1723,5.48589e+08,548589,-0.567416,-63.1664,7.1881
1724,5.48597e+08,548597,-0.567503,-63.167,7.18823
1725,5.48606e+08,548606,-0.567474,-63.1671,7.18821
1726,5.48614e+08,548614,-0.5677,-63.1673,7.18872
1727,5.48622e+08,548622,-0.568396,-63.1667,7.19009
1728,5.48631e+08,548631,-0.568846,-63.1671,7.19005
1729,5.48639e+08,548639,-0.570784,-63.1665,7.19191
1730,5.48647e+08,548647,-0.570949,-63.1654,7.19251
1731,5.48656e+08,548656,-0.571578,-63.1644,7.19281
1732,5.48664e+08,548664,-0.571626,-63.1645,7.19281
1733,5.48672e+08,548672,-0.570783,-63.1646,7.19212
1734,5.48681e+08,548681,-0.571251,-63.1642,7.19265
1735,5.48689e+08,548689,-0.570399,-63.1641,7.19186
1736,5.48697e+08,548697,-0.56908,-63.1645,7.19061
1737,5.48706e+08,548706,-0.569328,-63.1644,7.19083
1738,5.48714e+08,548714,-0.569334,-63.165,7.19022
1739,5.48722e+08,548722,-0.569549,-63.165,7.1903
1740,5.48731e+08,548731,-0.569967,-63.1647,7.19077
1741,5.48739e+08,548739,-0.56963,-63.1638,7.19103
1742,5.48747e+08,548747,-0.568413,-63.1632,7.18975
1743,5.48756e+08,548756,-0.570174,-63.1622,7.19114
1744,5.48764e+08,548764,-0.570322,-63.1617,7.19134
1745,5.48772e+08,548772,-0.570392,-63.161,7.19121
1746,5.48781e+08,548781,-0.570275,-63.1605,7.19101
1747,5.48789e+08,548789,-0.571279,-63.1606,7.19148
1748,5.48797e+08,548797,-0.57161,-63.161,7.19166
1749,5.48806e+08,548806,-0.571883,-63.1613,7.19184
1750,5.48814e+08,548814,-0.571126,-63.1616,7.19172
1751,5.48822e+08,548822,-0.570504,-63.1621,7.19165
1752,5.48831e+08,548831,-0.569918,-63.1623,7.19129
1753,5.48839e+08,548839,-0.57077,-63.1619,7.19184
1754,5.48847e+08,548847,-0.569832,-63.1617,7.19068
1755,5.48856e+08,548856,-0.570382,-63.1615,7.19068
1756,5.48864e+08,548864,-0.570132,-63.1614,7.19046
1757,5.48872e+08,548872,-0.568609,-63.1622,7.18878
1758,5.48881e+08,548881,-0.567646,-63.1626,7.18858
1759,5.48889e+08,548889,-0.567264,-63.1627,7.18878
1760,5.48897e+08,548897,-0.566881,-63.1628,7.18945
1761,5.48906e+08,548906,-0.565521,-63.1623,7.18698
1762,5.48914e+08,548914,-0.56427,-63.1626,7.18577
1763,5.48922e+08,548922,-0.564723,-63.1627,7.18575
1764,5.48931e+08,548931,-0.564613,-63.1624,7.1856
1765,5.48939e+08,548939,-0.563616,-63.1621,7.1846
1766,5.48947e+08,548947,-0.562705,-63.1617,7.18361
1767,5.48956e+08,548956,-0.565009,-63.1622,7.18487
1768,5.48964e+08,548964,-0.564297,-63.1624,7.18437
1769,5.48972e+08,548972,-0.565486,-63.1626,7.18483
1770,5.48981e+08,548981,-0.564601,-63.1629,7.18334
1771,5.48989e+08,548989,-0.56459,-63.1629,7.18255
1772,5.48997e+08,548997,-0.564502,-63.1625,7.18218
1773,5.49006e+08,549006,-0.565282,-63.1629,7.18321
1774,5.49014e+08,549014,-0.564742,-63.1634,7.18263
1775,5.49022e+08,549022,-0.565419,-63.1636,7.18286
1776,5.49031e+08,549031,-0.564737,-63.1636,7.18232
1777,5.49039e+08,549039,-0.565996,-63.1637,7.18225
1778,5.49047e+08,549047,-0.566363,-63.1636,7.18272
1779,5.49056e+08,549056,-0.565571,-63.164,7.18221
1780,5.49064e+08,549064,-0.563053,-63.1641,7.1795
1781,5.49072e+08,549072,-0.562149,-63.1635,7.17909
1782,5.49081e+08,549081,-0.561703,-63.1629,7.17873
1783,5.49089e+08,549089,-0.562799,-63.163,7.17917
1784,5.49097e+08,549097,-0.563052,-63.1633,7.1792
1785,5.49106e+08,549106,-0.564667,-63.1634,7.18105
1786,5.49114e+08,549114,-0.563744,-63.1637,7.18048
1787,5.49122e+08,549122,-0.564138,-63.1634,7.18027
1788,5.49131e+08,549131,-0.565835,-63.1633,7.1815
1789,5.49139e+08,549139,-0.564812,-63.1631,7.18101
1790,5.49147e+08,549147,-0.563493,-63.163,7.1795
1791,5.49156e+08,549156,-0.562971,-63.163,7.17851
1792,5.49164e+08,549164,-0.562926,-63.1625,7.17908
1793,5.49172e+08,549172,-0.562784,-63.1624,7.17898
1794,5.49181e+08,549181,-0.564516,-63.1621,7.18074
1795,5.49189e+08,549189,-0.564819,-63.1614,7.18042
1796,5.49197e+08,549197,-0.565577,-63.1609,7.18148
1797,5.49206e+08,549206,-0.566553,-63.1608,7.18165
1798,5.49214e+08,549214,-0.565845,-63.1607,7.18158
1799,5.49222e+08,549222,-0.56453,-63.1604,7.18009
1800,5.49231e+08,549231,-0.565247,-63.1609,7.1801
1801,5.49239e+08,549239,-0.565258,-63.1613,7.18001
1802,5.49247e+08,549247,-0.566194,-63.1613,7.18121
1803,5.49256e+08,549256,-0.565444,-63.1613,7.17999
1804,5.49264e+08,549264,-0.564297,-63.1613,7.17891
1805,5.49272e+08,549272,-0.563655,-63.1616,7.17789
1806,5.49281e+08,549281,-0.563482,-63.1612,7.17738
1807,5.49289e+08,549289,-0.564296,-63.1606,7.17824
1808,5.49297e+08,549297,-0.563555,-63.1602,7.17759
1809,5.49306e+08,549306,-0.563551,-63.16,7.17639
1810,5.49314e+08,549314,-0.563401,-63.1608,7.17604
1811,5.49322e+08,549322,-0.564285,-63.1603,7.17657
1812,5.49331e+08,549331,-0.565271,-63.1606,7.17819
1813,5.49339e+08,549339,-0.564773,-63.1607,7.17862
1814,5.49347e+08,549347,-0.564821,-63.1612,7.1786
1815,5.49356e+08,549356,-0.563482,-63.1612,7.1778
1816,5.49364e+08,549364,-0.564105,-63.1609,7.17812
1817,5.49372e+08,549372,-0.564044,-63.1611,7.17831
1818,5.49381e+08,549381,-0.563466,-63.1608,7.17773
1819,5.49389e+08,549389,-0.562166,-63.1618,7.17628
1820,5.49397e+08,549397,-0.562326,-63.1624,7.17675
1821,5.49406e+08,549406,-0.561462,-63.1622,7.17546
1822,5.49414e+08,549414,-0.561787,-63.1624,7.17566
1823,5.49422e+08,549422,-0.558142,-63.1621,7.17138
1824,5.49431e+08,549431,-0.556534,-63.162,7.16933
1825,5.49439e+08,549439,-0.55757,-63.1615,7.17004
1826,5.49447e+08,549447,-0.557587,-63.1616,7.17031
1827,5.49456e+08,549456,-0.557553,-63.1616,7.1703
1828,5.49464e+08,549464,-0.558377,-63.1619,7.17117
1829,5.49472e+08,549472,-0.557558,-63.1612,7.17029
1830,5.49481e+08,549481,-0.557325,-63.1617,7.17083
1831,5.49489e+08,549489,-0.559292,-63.1616,7.17227
1832,5.49497e+08,549497,-0.560092,-63.1605,7.17326
1833,5.49506e+08,549506,-0.559836,-63.16,7.17261
1834,5.49514e+08,549514,-0.559664,-63.1604,7.17178
1835,5.49522e+08,549522,-0.56144,-63.1598,7.17284
1836,5.49531e+08,549531,-0.562339,-63.1593,7.17351
1837,5.49539e+08,549539,-0.560332,-63.1591,7.17057
1838,5.49547e+08,549547,-0.561426,-63.1593,7.17161
1839,5.49556e+08,549556,-0.561422,-63.1587,7.17111
1840,5.49564e+08,549564,-0.561039,-63.1583,7.17028
1841,5.49572e+08,549572,-0.5591,-63.1591,7.16922
1842,5.49581e+08,549581,-0.558752,-63.1586,7.16859
1843,5.49589e+08,549589,-0.560416,-63.1579,7.17011
1844,5.49597e+08,549597,-0.561569,-63.1589,7.17074
1845,5.49606e+08,549606,-0.559357,-63.1584,7.1688
1846,5.49614e+08,549614,-0.559644,-63.1576,7.16869
1847,5.49622e+08,549622,-0.560048,-63.157,7.16886
1848,5.49631e+08,549631,-0.558918,-63.1571,7.16814
1849,5.49639e+08,549639,-0.559459,-63.1568,7.16884
1850,5.49647e+08,549647,-0.559085,-63.1568,7.16785
1851,5.49656e+08,549656,-0.558019,-63.1563,7.16634
1852,5.49664e+08,549664,-0.555925,-63.1567,7.16311
1853,5.49672e+08,549672,-0.555213,-63.1573,7.16142
1854,5.49681e+08,549681,-0.55447,-63.1565,7.16054
1855,5.49689e+08,549689,-0.553596,-63.157,7.15971
1856,5.49697e+08,549697,-0.553463,-63.1578,7.1595
1857,5.49706e+08,549706,-0.552695,-63.1587,7.15884
1858,5.49714e+08,549714,-0.553137,-63.1587,7.15926
1859,5.49722e+08,549722,-0.552802,-63.1587,7.15892
1860,5.49731e+08,549731,-0.553587,-63.1583,7.16008
1861,5.49739e+08,549739,-0.552023,-63.1577,7.15887
1862,5.49747e+08,549747,-0.551628,-63.1577,7.15836
1863,5.49756e+08,549756,-0.551612,-63.1577,7.15826
1864,5.49764e+08,549764,-0.551466,-63.1572,7.15834
1865,5.49772e+08,549772,-0.551565,-63.1571,7.15803
1866,5.49781e+08,549781,-0.552312,-63.1568,7.15827
1867,5.49789e+08,549789,-0.55279,-63.1575,7.15888
1868,5.49797e+08,549797,-0.550769,-63.1575,7.15701
1869,5.49806e+08,549806,-0.550649,-63.1577,7.1572
1870,5.49814e+08,549814,-0.549909,-63.1574,7.15641
1871,5.49822e+08,549822,-0.550484,-63.1569,7.15751
1872,5.49831e+08,549831,-0.550902,-63.157,7.15791
1873,5.49839e+08,549839,-0.552237,-63.1571,7.15874
1874,5.49847e+08,549847,-0.553271,-63.1567,7.15941
1875,5.49856e+08,549856,-0.553654,-63.1568,7.16003
1876,5.49864e+08,549864,-0.553185,-63.1566,7.15924
1877,5.49872e+08,549872,-0.552772,-63.1564,7.15945
1878,5.49881e+08,549881,-0.554705,-63.1564,7.16142
1879,5.49889e+08,549889,-0.556989,-63.1559,7.16246
1880,5.49897e+08,549897,-0.557941,-63.156,7.16265
1881,5.49906e+08,549906,-0.558597,-63.1558,7.16337
1882,5.49914e+08,549914,-0.557662,-63.1559,7.16264
1883,5.49922e+08,549922,-0.557603,-63.156,7.16203
1884,5.49931e+08,549931,-0.558704,-63.1551,7.16331
1885,5.49939e+08,549939,-0.559253,-63.1544,7.16344
1886,5.49947e+08,549947,-0.558574,-63.155,7.16305
1887,5.49956e+08,549956,-0.559091,-63.1558,7.16332
1888,5.49964e+08,549964,-0.558461,-63.1559,7.16323
1889,5.49972e+08,549972,-0.55834,-63.1558,7.16304
1890,5.49981e+08,549981,-0.556657,-63.1556,7.16149
1891,5.49989e+08,549989,-0.556025,-63.1544,7.1605
1892,5.49997e+08,549997,-0.554647,-63.1553,7.15925
1893,5.50006e+08,550006,-0.554015,-63.1553,7.15808
1894,5.50014e+08,550014,-0.554346,-63.155,7.15901
1895,5.50022e+08,550022,-0.554499,-63.1554,7.15849
1896,5.50031e+08,550031,-0.55419,-63.1553,7.15903
1897,5.50039e+08,550039,-0.55693,-63.1553,7.16091
1898,5.50047e+08,550047,-0.555204,-63.1555,7.16018
1899,5.50056e+08,550056,-0.553448,-63.1559,7.15887
1900,5.50064e+08,550064,-0.551548,-63.1562,7.1565
1901,5.50072e+08,550072,-0.552959,-63.1557,7.15736
1902,5.50081e+08,550081,-0.553091,-63.1566,7.15768
1903,5.50089e+08,550089,-0.55268,-63.157,7.15711
1904,5.50097e+08,550097,-0.553915,-63.1572,7.15782
1905,5.50106e+08,550106,-0.554284,-63.1573,7.15753
1906,5.50114e+08,550114,-0.552583,-63.1567,7.15549
1907,5.50122e+08,550122,-0.551707,-63.1566,7.15471
1908,5.50131e+08,550131,-0.551649,-63.1575,7.15463
1909,5.50139e+08,550139,-0.551056,-63.1576,7.15401
1910,5.50147e+08,550147,-0.551308,-63.1575,7.15451
1911,5.50156e+08,550156,-0.550957,-63.1577,7.15359
1912,5.50164e+08,550164,-0.551023,-63.1577,7.15357
1913,5.50172e+08,550172,-0.549684,-63.1574,7.15186
1914,5.50181e+08,550181,-0.550334,-63.1571,7.1533
1915,5.50189e+08,550189,-0.55013,-63.1563,7.15295
1916,5.50197e+08,550197,-0.549439,-63.1565,7.15239
1917,5.50206e+08,550206,-0.549662,-63.1567,7.15183
1918,5.50214e+08,550214,-0.552235,-63.1571,7.15455
1919,5.50222e+08,550222,-0.56387,-63.1594,7.16451
1920,5.50231e+08,550231,-0.563637,-63.1595,7.16407
1921,5.50239e+08,550239,-0.563814,-63.1588,7.16443
1922,5.50247e+08,550247,-0.56284,-63.1585,7.16402
1923,5.50256e+08,550256,-0.562572,-63.1582,7.16343
1924,5.50264e+08,550264,-0.562953,-63.1576,7.16441
1925,5.50272e+08,550272,-0.563315,-63.1577,7.16467
1926,5.50281e+08,550281,-0.5633,-63.1573,7.16529
1927,5.50289e+08,550289,-0.56333,-63.1576,7.16534
1928,5.50297e+08,550297,-0.563322,-63.158,7.1654
1929,5.50306e+08,550306,-0.564594,-63.1579,7.16636
1930,5.50314e+08,550314,-0.565019,-63.1575,7.16715
1931,5.50322e+08,550322,-0.566326,-63.1578,7.16798
1932,5.50331e+08,550331,-0.565771,-63.1576,7.16788
1933,5.50339e+08,550339,-0.56596,-63.1572,7.1676
1934,5.50347e+08,550347,-0.565301,-63.1573,7.16747
1935,5.50356e+08,550356,-0.564167,-63.1578,7.16634
1936,5.50364e+08,550364,-0.561733,-63.158,7.1639
1937,5.50372e+08,550372,-0.55995,-63.1582,7.16243
1938,5.50381e+08,550381,-0.557973,-63.1579,7.16001
1939,5.50389e+08,550389,-0.556778,-63.1578,7.15797
1940,5.50397e+08,550397,-0.556819,-63.1579,7.1585
1941,5.50406e+08,550406,-0.556152,-63.1585,7.15773
1942,5.50414e+08,550414,-0.556612,-63.1588,7.15725
1943,5.50422e+08,550422,-0.558049,-63.1582,7.1594
1944,5.50431e+08,550431,-0.557697,-63.1579,7.159
1945,5.50439e+08,550439,-0.558059,-63.1574,7.15854
1946,5.50447e+08,550447,-0.558123,-63.158,7.15849
1947,5.50456e+08,550456,-0.558054,-63.1583,7.15779
1948,5.50464e+08,550464,-0.557928,-63.1586,7.15737
1949,5.50472e+08,550472,-0.560442,-63.1593,7.15917
1950,5.50481e+08,550481,-0.560727,-63.1599,7.15996
1951,5.50489e+08,550489,-0.561975,-63.1593,7.16076
1952,5.50497e+08,550497,-0.564071,-63.1592,7.16266
1953,5.50506e+08,550506,-0.564804,-63.1597,7.16373
1954,5.50514e+08,550514,-0.564694,-63.1597,7.16393
1955,5.50522e+08,550522,-0.565611,-63.1598,7.16391
1956,5.50531e+08,550531,-0.565577,-63.1598,7.16391
1957,5.50539e+08,550539,-0.566699,-63.1597,7.16495
1958,5.50547e+08,550547,-0.565883,-63.1593,7.16418
1959,5.50556e+08,550556,-0.567571,-63.1594,7.16515
1960,5.50564e+08,550564,-0.568439,-63.1595,7.16588
1961,5.50572e+08,550572,-0.569224,-63.1604,7.16701
1962,5.50581e+08,550581,-0.568779,-63.16,7.16665
1963,5.50589e+08,550589,-0.56877,-63.1599,7.16583
1964,5.50597e+08,550597,-0.569741,-63.1598,7.16641
1965,5.50606e+08,550606,-0.568631,-63.1599,7.16548
1966,5.50614e+08,550614,-0.56594,-63.1597,7.1626
1967,5.50622e+08,550622,-0.565256,-63.1594,7.16144
1968,5.50631e+08,550631,-0.565576,-63.1597,7.16176
1969,5.50639e+08,550639,-0.565011,-63.1593,7.16078
1970,5.50647e+08,550647,-0.566205,-63.1593,7.16242
1971,5.50656e+08,550656,-0.565936,-63.1588,7.16234
1972,5.50664e+08,550664,-0.56454,-63.1588,7.161
1973,5.50672e+08,550672,-0.566407,-63.1587,7.16195
1974,5.50681e+08,550681,-0.566249,-63.1588,7.16246
1975,5.50689e+08,550689,-0.566429,-63.1596,7.16263
1976,5.50697e+08,550697,-0.566463,-63.1589,7.16264
1977,5.50706e+08,550706,-0.567042,-63.1592,7.16321
1978,5.50714e+08,550714,-0.568311,-63.1588,7.16461
1979,5.50722e+08,550722,-0.567605,-63.159,7.16461
1980,5.50731e+08,550731,-0.565884,-63.1607,7.16324
1981,5.50739e+08,550739,-0.564232,-63.1608,7.16157
1982,5.50747e+08,550747,-0.564541,-63.1613,7.16181
1983,5.50756e+08,550756,-0.563964,-63.161,7.16136
1984,5.50764e+08,550764,-0.563962,-63.1612,7.16123
1985,5.50772e+08,550772,-0.563833,-63.161,7.1612
1986,5.50781e+08,550781,-0.565211,-63.1614,7.16233
1987,5.50789e+08,550789,-0.564639,-63.1614,7.16069
1988,5.50797e+08,550797,-0.564367,-63.1611,7.16023
1989,5.50806e+08,550806,-0.563941,-63.1613,7.16
1990,5.50814e+08,550814,-0.564063,-63.1611,7.15953
1991,5.50822e+08,550822,-0.563401,-63.161,7.15827
1992,5.50831e+08,550831,-0.562952,-63.1613,7.15768
1993,5.50839e+08,550839,-0.563961,-63.1609,7.15805
1994,5.50847e+08,550847,-0.564797,-63.1599,7.159
1995,5.50856e+08,550856,-0.564282,-63.1597,7.15742
1996,5.50864e+08,550864,-0.564108,-63.1598,7.1573
1997,5.50872e+08,550872,-0.564897,-63.1599,7.15783
1998,5.50881e+08,550881,-0.565038,-63.1598,7.15802
1999,5.50889e+08,550889,-0.565942,-63.1606,7.15823
2000,5.50897e+08,550897,-0.5655,-63.1607,7.1571
2001,5.50906e+08,550906,-0.566495,-63.1606,7.15654
2002,5.50914e+08,550914,-0.566358,-63.1609,7.15646
2003,5.50922e+08,550922,-0.567089,-63.1613,7.15694
2004,5.50931e+08,550931,-0.566285,-63.1616,7.15667
2005,5.50939e+08,550939,-0.567491,-63.1616,7.1577
2006,5.50947e+08,550947,-0.569403,-63.1616,7.15928
2007,5.50956e+08,550956,-0.569904,-63.1608,7.16014
2008,5.50964e+08,550964,-0.570193,-63.1613,7.16005
2009,5.50972e+08,550972,-0.568787,-63.1619,7.15784
2010,5.50981e+08,550981,-0.569687,-63.1619,7.15943
2011,5.50989e+08,550989,-0.56856,-63.1621,7.15813
2012,5.50997e+08,550997,-0.569186,-63.1624,7.15892
2013,5.51006e+08,551006,-0.571872,-63.1624,7.16135
2014,5.51014e+08,551014,-0.573773,-63.1621,7.16322
2015,5.51022e+08,551022,-0.573693,-63.1613,7.16261
2016,5.51031e+08,551031,-0.573451,-63.1611,7.16256
2017,5.51039e+08,551039,-0.572384,-63.1608,7.16161
2018,5.51047e+08,551047,-0.573131,-63.1612,7.16308
2019,5.51056e+08,551056,-0.573691,-63.161,7.16339
2020,5.51064e+08,551064,-0.574138,-63.1617,7.16382
2021,5.51072e+08,551072,-0.572927,-63.1623,7.16298
2022,5.51081e+08,551081,-0.572544,-63.162,7.16343
2023,5.51089e+08,551089,-0.574038,-63.1611,7.16507
2024,5.51097e+08,551097,-0.573208,-63.1615,7.16451
2025,5.51106e+08,551106,-0.572765,-63.1614,7.16358
2026,5.51114e+08,551114,-0.571686,-63.1615,7.16195
2027,5.51122e+08,551122,-0.571435,-63.1611,7.16065
2028,5.51131e+08,551131,-0.57057,-63.1608,7.16056
2029,5.51139e+08,551139,-0.57274,-63.1613,7.16231
2030,5.51147e+08,551147,-0.573288,-63.1619,7.16382
2031,5.51156e+08,551156,-0.570916,-63.1618,7.16127
2032,5.51164e+08,551164,-0.569731,-63.1624,7.15979
2033,5.51172e+08,551172,-0.570559,-63.1623,7.16059
2034,5.51181e+08,551181,-0.570982,-63.1621,7.16119
2035,5.51189e+08,551189,-0.572147,-63.1616,7.16222
2036,5.51197e+08,551197,-0.571145,-63.1618,7.16141
2037,5.51206e+08,551206,-0.57069,-63.1612,7.16082
2038,5.51214e+08,551214,-0.570792,-63.1615,7.16125
2039,5.51222e+08,551222,-0.571046,-63.161,7.16086
2040,5.51231e+08,551231,-0.571039,-63.1608,7.16082
2041,5.51239e+08,551239,-0.570055,-63.1619,7.15944
2042,5.51247e+08,551247,-0.570826,-63.1617,7.15985
2043,5.51256e+08,551256,-0.570078,-63.1624,7.15941
2044,5.51264e+08,551264,-0.569311,-63.1623,7.15914
2045,5.51272e+08,551272,-0.569913,-63.163,7.16006
2046,5.51281e+08,551281,-0.569791,-63.1633,7.15963
2047,5.51289e+08,551289,-0.568994,-63.1629,7.15837
2048,5.51297e+08,551297,-0.569143,-63.1626,7.15813
2049,5.51306e+08,551306,-0.570431,-63.1626,7.15955
2050,5.51314e+08,551314,-0.571633,-63.1621,7.16065
2051,5.51322e+08,551322,-0.573801,-63.1623,7.16304
2052,5.51331e+08,551331,-0.575256,-63.163,7.16507
2053,5.51339e+08,551339,-0.575954,-63.1627,7.16534
2054,5.51347e+08,551347,-0.576516,-63.1623,7.16554
2055,5.51356e+08,551356,-0.578044,-63.1619,7.16739
2056,5.51364e+08,551364,-0.577441,-63.1623,7.16755
2057,5.51372e+08,551372,-0.578858,-63.1617,7.16847
2058,5.51381e+08,551381,-0.578482,-63.1625,7.1683
2059,5.51389e+08,551389,-0.57922,-63.163,7.1681
2060,5.51397e+08,551397,-0.578762,-63.1626,7.16732
2061,5.51406e+08,551406,-0.578789,-63.1629,7.16696
2062,5.51414e+08,551414,-0.577465,-63.1633,7.16625
2063,5.51422e+08,551422,-0.578514,-63.1629,7.16694
2064,5.51431e+08,551431,-0.578013,-63.1634,7.1672
2065,5.51439e+08,551439,-0.57782,-63.1633,7.16696
2066,5.51447e+08,551447,-0.577011,-63.1636,7.16672
2067,5.51456e+08,551456,-0.576738,-63.1637,7.16585
2068,5.51464e+08,551464,-0.576798,-63.164,7.16528
2069,5.51472e+08,551472,-0.57807,-63.1642,7.16635
2070,5.51481e+08,551481,-0.576728,-63.1643,7.16516
2071,5.51489e+08,551489,-0.575758,-63.1637,7.16381
2072,5.51497e+08,551497,-0.575707,-63.1639,7.1641
2073,5.51506e+08,551506,-0.574744,-63.1636,7.16371
2074,5.51514e+08,551514,-0.573457,-63.1637,7.16231
2075,5.51522e+08,551522,-0.572654,-63.1639,7.16078
2076,5.51531e+08,551531,-0.572527,-63.1642,7.16031
2077,5.51539e+08,551539,-0.571772,-63.1644,7.16016
2078,5.51547e+08,551547,-0.57298,-63.1649,7.16143
2079,5.51556e+08,551556,-0.572017,-63.1655,7.16108
2080,5.51564e+08,551564,-0.572082,-63.1654,7.16117
2081,5.51572e+08,551572,-0.574049,-63.1658,7.16289
2082,5.51581e+08,551581,-0.574354,-63.166,7.16308
2083,5.51589e+08,551589,-0.576119,-63.1665,7.16498
2084,5.51597e+08,551597,-0.574993,-63.1668,7.16333
2085,5.51606e+08,551606,-0.575199,-63.1669,7.16345
2086,5.51614e+08,551614,-0.574731,-63.1661,7.16267
2087,5.51622e+08,551622,-0.57504,-63.1657,7.16323
2088,5.51631e+08,551631,-0.57618,-63.1656,7.16399
2089,5.51639e+08,551639,-0.57622,-63.1654,7.1637
2090,5.51647e+08,551647,-0.57496,-63.1658,7.16257
2091,5.51656e+08,551656,-0.574244,-63.1661,7.16216
2092,5.51664e+08,551664,-0.574119,-63.1649,7.162
2093,5.51672e+08,551672,-0.574299,-63.1648,7.16216
2094,5.51681e+08,551681,-0.574279,-63.1653,7.16194
2095,5.51689e+08,551689,-0.574386,-63.165,7.1616
2096,5.51697e+08,551697,-0.575497,-63.1637,7.16266
2097,5.51706e+08,551706,-0.574841,-63.1643,7.16182
2098,5.51714e+08,551714,-0.576062,-63.1643,7.16309
2099,5.51722e+08,551722,-0.576498,-63.1649,7.16319
2100,5.51731e+08,551731,-0.576847,-63.1651,7.1635
2101,5.51739e+08,551739,-0.577799,-63.1645,7.16426
2102,5.51747e+08,551747,-0.577066,-63.1647,7.16342
2103,5.51756e+08,551756,-0.576855,-63.1657,7.16241
2104,5.51764e+08,551764,-0.577398,-63.1663,7.16193
2105,5.51772e+08,551772,-0.576933,-63.1668,7.16175
2106,5.51781e+08,551781,-0.57629,-63.1667,7.16106
2107,5.51789e+08,551789,-0.57591,-63.1672,7.16
2108,5.51797e+08,551797,-0.575721,-63.1678,7.15952
2109,5.51806e+08,551806,-0.576427,-63.1674,7.16061
2110,5.51814e+08,551814,-0.578111,-63.1676,7.16199
2111,5.51822e+08,551822,-0.578168,-63.1673,7.16085
2112,5.51831e+08,551831,-0.57778,-63.1673,7.16037
2113,5.51839e+08,551839,-0.578673,-63.1677,7.16087
2114,5.51847e+08,551847,-0.578671,-63.1677,7.16169
2115,5.51856e+08,551856,-0.578399,-63.1679,7.16195
2116,5.51864e+08,551864,-0.580145,-63.1675,7.16362
2117,5.51872e+08,551872,-0.580832,-63.1681,7.16402
2118,5.51881e+08,551881,-0.579607,-63.1681,7.16368
2119,5.51889e+08,551889,-0.57994,-63.1687,7.16415
2120,5.51897e+08,551897,-0.580464,-63.1683,7.16428
2121,5.51906e+08,551906,-0.58052,-63.1697,7.16438
2122,5.51914e+08,551914,-0.579502,-63.1694,7.16393
2123,5.51922e+08,551922,-0.578303,-63.1695,7.16236
2124,5.51931e+08,551931,-0.577277,-63.1692,7.16091
2125,5.51939e+08,551939,-0.577357,-63.1689,7.16039
2126,5.51947e+08,551947,-0.577175,-63.1689,7.16066
2127,5.51956e+08,551956,-0.577141,-63.1694,7.16031
2128,5.51964e+08,551964,-0.576898,-63.17,7.16033
2129,5.51972e+08,551972,-0.576528,-63.17,7.15974
2130,5.51981e+08,551981,-0.575322,-63.1704,7.15868
2131,5.51989e+08,551989,-0.578018,-63.1708,7.16126
2132,5.51997e+08,551997,-0.577977,-63.1702,7.16115
2133,5.52006e+08,552006,-0.578041,-63.1703,7.1604
2134,5.52014e+08,552014,-0.57748,-63.1705,7.16013
2135,5.52022e+08,552022,-0.577285,-63.17,7.15975
2136,5.52031e+08,552031,-0.577843,-63.1703,7.16005
2137,5.52039e+08,552039,-0.578285,-63.1702,7.16039
2138,5.52047e+08,552047,-0.57868,-63.1698,7.16098
2139,5.52056e+08,552056,-0.57684,-63.1711,7.15942
2140,5.52064e+08,552064,-0.576696,-63.1703,7.15928
2141,5.52072e+08,552072,-0.576298,-63.1704,7.15823
2142,5.52081e+08,552081,-0.576558,-63.1707,7.15874
2143,5.52089e+08,552089,-0.576356,-63.1706,7.15892
2144,5.52097e+08,552097,-0.575714,-63.1698,7.15884
2145,5.52106e+08,552106,-0.576814,-63.1698,7.15946
2146,5.52114e+08,552114,-0.57623,-63.1699,7.15859
2147,5.52122e+08,552122,-0.576789,-63.1702,7.15907
2148,5.52131e+08,552131,-0.577769,-63.17,7.15965
2149,5.52139e+08,552139,-0.578116,-63.1701,7.15953
2150,5.52147e+08,552147,-0.578466,-63.1709,7.16061
2151,5.52156e+08,552156,-0.577326,-63.1712,7.15946
2152,5.52164e+08,552164,-0.575942,-63.1717,7.15868
2153,5.52172e+08,552172,-0.575716,-63.172,7.15814
2154,5.52181e+08,552181,-0.575579,-63.1725,7.15783
2155,5.52189e+08,552189,-0.575119,-63.1724,7.15685
2156,5.52197e+08,552197,-0.575589,-63.1712,7.15725
2157,5.52206e+08,552206,-0.57537,-63.1712,7.15577
2158,5.52214e+08,552214,-0.576713,-63.1712,7.15662
2159,5.52222e+08,552222,-0.569438,-63.1605,7.14809
2160,5.52231e+08,552231,-0.571592,-63.1594,7.14947
2161,5.52239e+08,552239,-0.57261,-63.1587,7.15004
2162,5.52247e+08,552247,-0.571578,-63.1589,7.14833
2163,5.52256e+08,552256,-0.57044,-63.1584,7.14659
2164,5.52264e+08,552264,-0.5702,-63.1583,7.14676
2165,5.52272e+08,552272,-0.572087,-63.1578,7.14858
2166,5.52281e+08,552281,-0.573395,-63.1577,7.14911
2167,5.52289e+08,552289,-0.573553,-63.1589,7.14907
2168,5.52297e+08,552297,-0.572821,-63.1577,7.14864
2169,5.52306e+08,552306,-0.572715,-63.1588,7.14841
2170,5.52314e+08,552314,-0.570934,-63.1583,7.14645
2171,5.52322e+08,552322,-0.57124,-63.1582,7.14634
2172,5.52331e+08,552331,-0.570777,-63.158,7.14682
2173,5.52339e+08,552339,-0.570569,-63.1587,7.14679
2174,5.52347e+08,552347,-0.570177,-63.1586,7.14642
2175,5.52356e+08,552356,-0.570755,-63.1585,7.14724
2176,5.52364e+08,552364,-0.571021,-63.1595,7.14732
2177,5.52372e+08,552372,-0.570223,-63.1597,7.14668
2178,5.52381e+08,552381,-0.570719,-63.1603,7.14709
2179,5.52389e+08,552389,-0.570265,-63.16,7.14566
2180,5.52397e+08,552397,-0.570094,-63.1593,7.14535
2181,5.52406e+08,552406,-0.569261,-63.1595,7.144
2182,5.52414e+08,552414,-0.569158,-63.1596,7.14411
2183,5.52422e+08,552422,-0.570014,-63.1592,7.14528
2184,5.52431e+08,552431,-0.569425,-63.1591,7.14514
2185,5.52439e+08,552439,-0.570944,-63.1592,7.14622
2186,5.52447e+08,552447,-0.571703,-63.159,7.14649
2187,5.52456e+08,552456,-0.573308,-63.1589,7.14919
2188,5.52464e+08,552464,-0.573792,-63.1592,7.15048
2189,5.52472e+08,552472,-0.573477,-63.1596,7.15087
2190,5.52481e+08,552481,-0.572561,-63.1601,7.1501
2191,5.52489e+08,552489,-0.573592,-63.1607,7.14992
2192,5.52497e+08,552497,-0.573668,-63.1604,7.15009
2193,5.52506e+08,552506,-0.573,-63.1606,7.14909
2194,5.52514e+08,552514,-0.572568,-63.1613,7.14898
2195,5.52522e+08,552522,-0.573032,-63.161,7.14906
2196,5.52531e+08,552531,-0.574758,-63.16,7.14993
2197,5.52539e+08,552539,-0.574549,-63.1598,7.14917
2198,5.52547e+08,552547,-0.575075,-63.1602,7.14913
2199,5.52556e+08,552556,-0.574822,-63.1595,7.14873
2200,5.52564e+08,552564,-0.576015,-63.1598,7.14968
2201,5.52572e+08,552572,-0.577337,-63.1597,7.15016
2202,5.52581e+08,552581,-0.576435,-63.159,7.14951
2203,5.52589e+08,552589,-0.576362,-63.1592,7.14916
2204,5.52597e+08,552597,-0.576253,-63.1592,7.14876
2205,5.52606e+08,552606,-0.576085,-63.159,7.14827
2206,5.52614e+08,552614,-0.577904,-63.1592,7.15011
2207,5.52622e+08,552622,-0.579221,-63.1592,7.15069
2208,5.52631e+08,552631,-0.579233,-63.1593,7.1507
2209,5.52639e+08,552639,-0.579815,-63.1595,7.15141
2210,5.52647e+08,552647,-0.579291,-63.1587,7.15059
2211,5.52656e+08,552656,-0.580486,-63.158,7.15112
2212,5.52664e+08,552664,-0.579632,-63.1581,7.15025
2213,5.52672e+08,552672,-0.578838,-63.1582,7.14984
2214,5.52681e+08,552681,-0.578652,-63.1579,7.14914
2215,5.52689e+08,552689,-0.580371,-63.1572,7.15065
2216,5.52697e+08,552697,-0.579398,-63.1568,7.14911
2217,5.52706e+08,552706,-0.580889,-63.1573,7.15002
2218,5.52714e+08,552714,-0.582564,-63.1574,7.15162
2219,5.52722e+08,552722,-0.58358,-63.1577,7.15127
2220,5.52731e+08,552731,-0.583923,-63.158,7.15088
2221,5.52739e+08,552739,-0.582426,-63.159,7.14933
2222,5.52747e+08,552747,-0.583109,-63.1591,7.15007
2223,5.52756e+08,552756,-0.58301,-63.1586,7.14922
2224,5.52764e+08,552764,-0.580294,-63.1589,7.14729
2225,5.52772e+08,552772,-0.580213,-63.1593,7.14762
2226,5.52781e+08,552781,-0.581051,-63.1595,7.14939
2227,5.52789e+08,552789,-0.581084,-63.1599,7.14932
2228,5.52797e+08,552797,-0.582293,-63.1602,7.15019
2229,5.52806e+08,552806,-0.581912,-63.1607,7.14932
2230,5.52814e+08,552814,-0.582376,-63.1598,7.1495
2231,5.52822e+08,552822,-0.583117,-63.1601,7.15025
2232,5.52831e+08,552831,-0.584057,-63.1603,7.15027
2233,5.52839e+08,552839,-0.583858,-63.1594,7.14986
2234,5.52847e+08,552847,-0.5821,-63.1597,7.14845
2235,5.52856e+08,552856,-0.582312,-63.1602,7.14864
2236,5.52864e+08,552864,-0.581034,-63.16,7.14675
2237,5.52872e+08,552872,-0.580004,-63.1593,7.14628
2238,5.52881e+08,552881,-0.57963,-63.1594,7.14655
2239,5.52889e+08,552889,-0.578273,-63.1597,7.14516
2240,5.52897e+08,552897,-0.577546,-63.1591,7.14434
2241,5.52906e+08,552906,-0.578129,-63.1592,7.14511
2242,5.52914e+08,552914,-0.575967,-63.1593,7.14353
2243,5.52922e+08,552922,-0.576483,-63.1594,7.14396
2244,5.52931e+08,552931,-0.577581,-63.1597,7.14571
2245,5.52939e+08,552939,-0.576352,-63.1598,7.14423
2246,5.52947e+08,552947,-0.576432,-63.1597,7.14417
2247,5.52956e+08,552956,-0.57699,-63.1592,7.14407
2248,5.52964e+08,552964,-0.576609,-63.1601,7.14367
2249,5.52972e+08,552972,-0.576674,-63.1611,7.14358
2250,5.52981e+08,552981,-0.576557,-63.1617,7.14338
2251,5.52989e+08,552989,-0.577861,-63.1618,7.14433
2252,5.52997e+08,552997,-0.577506,-63.1617,7.14329
2253,5.53006e+08,553006,-0.576773,-63.1614,7.14208
2254,5.53014e+08,553014,-0.577006,-63.1617,7.14171
2255,5.53022e+08,553022,-0.57686,-63.1615,7.14094
2256,5.53031e+08,553031,-0.576222,-63.1614,7.14049
2257,5.53039e+08,553039,-0.578464,-63.1616,7.14384
2258,5.53047e+08,553047,-0.578147,-63.1617,7.14306
2259,5.53056e+08,553056,-0.577794,-63.1621,7.14246
2260,5.53064e+08,553064,-0.577436,-63.162,7.14246
2261,5.53072e+08,553072,-0.579446,-63.1616,7.14376
2262,5.53081e+08,553081,-0.580164,-63.1619,7.14412
2263,5.53089e+08,553089,-0.579347,-63.1622,7.14295
2264,5.53097e+08,553097,-0.579401,-63.1618,7.14312
2265,5.53106e+08,553106,-0.578806,-63.1618,7.14221
2266,5.53114e+08,553114,-0.575802,-63.1613,7.13861
2267,5.53122e+08,553122,-0.575069,-63.1614,7.13758
2268,5.53131e+08,553131,-0.575297,-63.162,7.13751
2269,5.53139e+08,553139,-0.575134,-63.1618,7.13647
2270,5.53147e+08,553147,-0.576205,-63.1624,7.13777
2271,5.53156e+08,553156,-0.57653,-63.162,7.13787
2272,5.53164e+08,553164,-0.57678,-63.1618,7.1386
2273,5.53172e+08,553172,-0.57754,-63.1624,7.13847
2274,5.53181e+08,553181,-0.576936,-63.1622,7.13845
2275,5.53189e+08,553189,-0.575267,-63.1619,7.13671
2276,5.53197e+08,553197,-0.576486,-63.1615,7.13727
2277,5.53206e+08,553206,-0.577979,-63.161,7.13818
2278,5.53214e+08,553214,-0.578047,-63.1614,7.13809
2279,5.53222e+08,553222,-0.578433,-63.1617,7.1381
2280,5.53231e+08,553231,-0.579519,-63.162,7.13941
2281,5.53239e+08,553239,-0.581435,-63.1626,7.14102
2282,5.53247e+08,553247,-0.580643,-63.1622,7.1397
2283,5.53256e+08,553256,-0.581224,-63.1617,7.13989
2284,5.53264e+08,553264,-0.579599,-63.1616,7.13892
2285,5.53272e+08,553272,-0.580581,-63.1617,7.13939
2286,5.53281e+08,553281,-0.579551,-63.1616,7.1382
2287,5.53289e+08,553289,-0.580255,-63.1609,7.13886
2288,5.53297e+08,553297,-0.579797,-63.1612,7.1382
2289,5.53306e+08,553306,-0.579821,-63.1607,7.13693
2290,5.53314e+08,553314,-0.578321,-63.161,7.13589
2291,5.53322e+08,553322,-0.577714,-63.1607,7.13514
2292,5.53331e+08,553331,-0.576759,-63.1607,7.13474
2293,5.53339e+08,553339,-0.575211,-63.1608,7.13347
2294,5.53347e+08,553347,-0.574417,-63.1609,7.13334
2295,5.53356e+08,553356,-0.575093,-63.1612,7.13361
2296,5.53364e+08,553364,-0.575382,-63.1612,7.13377
2297,5.53372e+08,553372,-0.576076,-63.1615,7.13433
2298,5.53381e+08,553381,-0.576387,-63.1616,7.1348
2299,5.53389e+08,553389,-0.576497,-63.1613,7.13502
2300,5.53397e+08,553397,-0.577011,-63.1615,7.13538
2301,5.53406e+08,553406,-0.57852,-63.1618,7.13595
2302,5.53414e+08,553414,-0.577947,-63.1614,7.13569
2303,5.53422e+08,553422,-0.578431,-63.1609,7.13617
2304,5.53431e+08,553431,-0.578787,-63.1608,7.13588
2305,5.53439e+08,553439,-0.579155,-63.161,7.13593
2306,5.53447e+08,553447,-0.579593,-63.1603,7.13622
2307,5.53456e+08,553456,-0.579392,-63.1608,7.13575
2308,5.53464e+08,553464,-0.57904,-63.1609,7.13482
2309,5.53472e+08,553472,-0.579381,-63.1606,7.13431
2310,5.53481e+08,553481,-0.577931,-63.1606,7.1325
2311,5.53489e+08,553489,-0.578102,-63.1607,7.13286
2312,5.53497e+08,553497,-0.578325,-63.1609,7.13332
2313,5.53506e+08,553506,-0.578921,-63.161,7.13297
2314,5.53514e+08,553514,-0.578631,-63.1613,7.13221
2315,5.53522e+08,553522,-0.579393,-63.1616,7.13351
2316,5.5353e+08,553530,-0.579751,-63.1631,7.13392
2317,5.53539e+08,553539,-0.579298,-63.1625,7.13235
2318,5.53547e+08,553547,-0.577586,-63.162,7.13102
2319,5.53555e+08,553555,-0.576797,-63.1626,7.13086
2320,5.53564e+08,553564,-0.577165,-63.162,7.13125
2321,5.53572e+08,553572,-0.57882,-63.1623,7.13247
2322,5.5358e+08,553580,-0.579819,-63.1619,7.13331
2323,5.53589e+08,553589,-0.579209,-63.1615,7.13206
2324,5.53597e+08,553597,-0.581532,-63.1614,7.13387
2325,5.53605e+08,553605,-0.580396,-63.1617,7.13212
2326,5.53614e+08,553614,-0.580719,-63.1615,7.1327
2327,5.53622e+08,553622,-0.579175,-63.1613,7.13201
2328,5.5363e+08,553630,-0.579818,-63.1618,7.13292
2329,5.53639e+08,553639,-0.580222,-63.1619,7.13292
2330,5.53647e+08,553647,-0.580871,-63.1616,7.13345
2331,5.53655e+08,553655,-0.582434,-63.1618,7.13492
2332,5.53664e+08,553664,-0.581867,-63.1624,7.13471
2333,5.53672e+08,553672,-0.583996,-63.1631,7.13651
2334,5.5368e+08,553680,-0.582811,-63.1625,7.13538
2335,5.53689e+08,553689,-0.582825,-63.1623,7.13485
2336,5.53697e+08,553697,-0.582307,-63.162,7.13498
2337,5.53705e+08,553705,-0.579985,-63.1622,7.13215
2338,5.53714e+08,553714,-0.577954,-63.1619,7.13049
2339,5.53722e+08,553722,-0.57715,-63.1618,7.12983
2340,5.5373e+08,553730,-0.576324,-63.1625,7.12918
2341,5.53739e+08,553739,-0.577572,-63.1627,7.13001
2342,5.53747e+08,553747,-0.576213,-63.163,7.12938
2343,5.53755e+08,553755,-0.575405,-63.1633,7.12825
2344,5.53764e+08,553764,-0.575362,-63.1632,7.12791
2345,5.53772e+08,553772,-0.574299,-63.1627,7.12649
2346,5.5378e+08,553780,-0.574056,-63.163,7.12585
2347,5.53789e+08,553789,-0.575137,-63.163,7.12651
2348,5.53797e+08,553797,-0.574512,-63.1632,7.12577
2349,5.53805e+08,553805,-0.573866,-63.1635,7.12406
