timestamp_ms,acc_x,acc_y,acc_z,gyr_x,gyr_y,gyr_z,mag_x,mag_y,mag_z
0,-1.61472e-37,0,0,0,0,0,0,0,-0.0192871
1,-1.61565e-37,-0.226945,0.0846467,10.1591,-0.319691,-0.391821,-6.31738,3.97388,-0.0202637
2,-1.61658e-37,-0.209893,0.0585746,10.1335,-0.163931,-0.321382,-3.01807,3.97803,-0.0212402
3,-1.61752e-37,-0.220393,0.0638749,10.1299,-0.449223,-0.455677,-7.05127,3.97363,-0.0212402
4,-1.61845e-37,-0.221545,0.0705845,10.1097,-0.341054,-0.503268,6.32495,3.97388,-0.0236816
5,-1.61939e-37,-0.218984,0.0499698,10.1153,-0.427911,-0.421252,0.23877,3.9751,-0.0222168
6,-1.62032e-37,-0.209199,0.0457067,10.1263,-0.422993,-0.404859,-3.48315,3.97266,-0.0202637
7,-1.62126e-37,-0.223205,0.0652766,10.1299,-0.436108,-0.470457,-3.80469,3.97778,-0.0202637
8,-1.62219e-37,-0.226166,0.0665069,10.1355,-0.375428,-0.432804,0.813965,3.97632,-0.0187988
9,-1.62312e-37,-0.223691,0.0623444,10.1227,-0.347611,-0.45245,-5.5835,3.97412,-0.0241699
10,-1.62406e-37,-0.230314,0.071042,10.1154,-0.390156,-0.404935,7.26489,3.97729,-0.0202637
11,-1.62499e-37,-0.224199,0.0631453,10.1666,-0.531034,-0.332601,1.75806,3.97656,-0.0202637
12,-1.62593e-37,-0.23653,0.0697903,10.1209,-0.226174,-0.377246,7.15991,3.97729,-0.0231934
13,-1.62686e-37,-0.235929,0.0859843,10.1173,-0.447634,-0.496634,-4.53882,3.97754,-0.0192871
14,-1.62779e-37,-0.204121,0.048625,10.152,-0.355756,-0.398353,-4.74463,3.97437,-0.0231934
15,-1.62873e-37,-0.216266,0.0811562,10.1246,-0.301966,-0.60009,-4.22021,3.97461,-0.017334
16,-1.62966e-37,-0.230042,0.0789676,10.1191,-0.318129,-0.477142,-7.63135,3.97559,-0.0222168
17,-1.6306e-37,-0.227482,0.0766928,10.1302,-0.355807,-0.463976,5.6394,3.97681,-0.0153809
18,-1.63153e-37,-0.213963,0.0743325,10.1393,-0.406319,-0.288467,6.9519,3.97607,-0.0197754
19,-1.63246e-37,-0.207947,0.0846968,10.1686,-0.31462,-0.375556,-3.80493,3.97778,-0.0217285
20,-1.6334e-37,-0.212961,0.0696832,10.1448,-0.301761,-0.51167,-7.58276,3.97876,-0.0163574
21,-1.63433e-37,-0.223162,0.0692967,10.1595,-0.293257,-0.360879,2.43555,3.97998,-0.020752
22,-1.63527e-37,-0.237246,0.0836738,10.1211,-0.466973,-0.291541,-3.59058,3.97461,-0.0163574
23,-1.6362e-37,-0.235064,0.0683812,10.1065,-0.362621,-0.522889,-4.63818,3.97339,-0.0217285
24,-1.63714e-37,-0.237925,0.0715642,10.1102,-0.293411,-0.401811,-4.27368,3.97559,-0.0222168
25,-1.63807e-37,-0.240901,0.0766424,10.1468,-0.28191,-0.370664,1.97021,3.97461,-0.0246582
26,-1.639e-37,-0.220215,0.0835309,10.1138,-0.416564,-0.476911,0.0273438,3.97607,-0.0192871
27,-1.63994e-37,-0.214092,0.0554131,10.1468,-0.405268,-0.55401,-5.21924,3.97632,-0.0197754
28,-1.64087e-37,-0.224199,0.0695899,10.134,-0.366975,-0.324584,7.84448,3.97534,-0.0251465
29,-1.64181e-37,-0.223727,0.0599049,10.1505,-0.352477,-0.421354,2.54565,3.97583,-0.0227051
30,-1.64274e-37,-0.217496,0.086907,10.1194,-0.265261,-0.278913,5.64355,3.97363,-0.0246582
31,-1.64367e-37,-0.209829,0.0700118,10.1304,-0.367462,-0.478653,-5.5835,3.97412,-0.0222168
32,-1.64461e-37,-0.231144,0.0604985,10.1268,-0.34779,-0.485287,-5.89941,3.9751,-0.0197754
33,-1.64554e-37,-0.235822,0.0710204,10.1396,-0.398173,-0.360597,-5.16797,3.97729,-0.0236816
34,-1.64648e-37,-0.233598,0.0558637,10.1103,-0.390207,-0.429423,0.0273438,3.97607,-0.0178223
35,-1.64741e-37,-0.220086,0.058882,10.1268,-0.403527,-0.511388,-4.69604,3.97754,-0.0251465
36,-1.64835e-37,-0.219221,0.0674583,10.1396,-0.503371,-0.420765,-7.57568,3.97339,-0.0222168
37,-1.64928e-37,-0.227825,0.0650408,10.114,-0.488131,-0.263417,7.3772,3.97192,-0.0222168
38,-1.65021e-37,-0.216388,0.0679234,10.1232,-0.419689,-0.429371,-2.7019,3.97705,-0.0236816
39,-1.65115e-37,-0.217525,0.0673154,10.1452,-0.441026,-0.45724,-5.69531,3.97925,-0.0197754
40,-1.65208e-37,-0.233526,0.0412147,10.1379,-0.413132,-0.411313,-4.79785,3.97534,-0.0202637
41,-1.65302e-37,-0.203384,0.0752408,10.1232,-0.497403,-0.179889,-5.21997,3.97705,-0.0202637
42,-1.65395e-37,-0.23427,0.0619149,10.1471,-0.391334,-0.306577,5.00879,3.97754,-0.0217285
43,-1.65488e-37,-0.231981,0.0669077,10.1288,-0.498222,-0.404526,7.47339,3.97827,-0.0212402
44,-1.65582e-37,-0.213155,0.0605989,10.1141,-0.491076,-0.230682,-3.38232,3.97559,-0.0202637
45,-1.65675e-37,-0.220021,0.0654271,10.1343,-0.495226,-0.432291,5.48364,3.97559,-0.0241699
46,-1.65769e-37,-0.237632,0.0722223,10.1326,-0.499145,-0.201149,6.06079,3.97559,-0.0212402
47,-1.65862e-37,-0.239091,0.0862631,10.1052,-0.580162,-0.371304,6.32153,3.97681,-0.0236816
48,-1.65956e-37,-0.227775,0.0597048,10.1106,-0.567227,-0.410724,-3.85547,3.97656,-0.0212402
49,-1.66049e-37,-0.238118,0.0590038,10.1179,-0.570429,-0.399249,-5.5874,3.97705,-0.0222168
50,-1.66142e-37,-0.221016,0.0543328,10.1362,-0.574015,-0.448352,7.16162,3.97607,-0.0236816
51,-1.66236e-37,-0.220236,0.0645114,10.1381,-0.469919,-0.288263,7.10791,3.97705,-0.0192871
52,-1.66329e-37,-0.20686,0.0839529,10.1125,-0.485262,-0.389695,5.64233,3.97461,-0.0217285
53,-1.66423e-37,-0.215558,0.0723937,10.107,-0.390182,-0.40993,-4.48511,3.97656,-0.0236816
54,-1.66516e-37,-0.233147,0.0701052,10.1419,-0.360802,-0.414951,-3.27612,3.97485,-0.0246582
55,-1.66609e-37,-0.250915,0.0661638,10.1328,-0.353323,-0.279067,2.22705,3.97876,-0.0227051
56,-1.66703e-37,-0.208198,0.0854336,10.1217,-0.403475,-0.422891,6.06177,3.97485,-0.0187988
57,-1.66796e-37,-0.218662,0.0684456,10.1401,-0.383701,-0.408291,-6.7395,3.97583,-0.0253906
58,-1.6689e-37,-0.23623,0.0828013,10.131,-0.281244,-0.246486,-7.94409,3.97437,-0.017334
59,-1.66983e-37,-0.217654,0.063832,10.1566,-0.400351,-0.440898,1.13159,3.97437,-0.0219727
60,-1.67077e-37,-0.238948,0.0746113,10.1256,-0.423916,-0.283524,-6.37354,3.97681,-0.0217285
61,-1.6717e-37,-0.225865,0.0610924,10.12,-0.329809,-0.469355,-0.919189,3.97778,-0.0187988
62,-1.67263e-37,-0.23603,0.0699047,10.1256,-0.386672,-0.368973,5.84912,3.97681,-0.0227051
63,-1.67357e-37,-0.20608,0.0707919,10.1456,-0.372124,-0.391949,2.49341,3.97583,-0.0187988
64,-1.6745e-37,-0.216595,0.0575589,10.1548,-0.315132,-0.471046,-3.33154,3.97705,-0.020752
65,-1.67544e-37,-0.228469,0.0848613,10.1293,-0.366924,-0.337826,-6.37109,3.97485,-0.0217285
66,-1.67637e-37,-0.218641,0.0970569,10.1312,-0.345843,-0.365797,5.32788,3.97461,-0.0212402
67,-1.6773e-37,-0.236688,0.0748617,10.1257,-0.363748,-0.350966,7.00562,3.9751,-0.0212402
68,-1.67824e-37,-0.235936,0.0871289,10.1404,-0.335623,-0.336545,-7.84351,3.97754,-0.0212402
69,-1.67917e-37,-0.23736,0.0775297,10.1441,-0.359086,-0.400171,0.86792,3.97534,-0.0217285
70,-1.68011e-37,-0.220558,0.0604198,10.1256,-0.414618,-0.357114,4.85547,3.97437,-0.0178223
71,-1.68104e-37,-0.221817,0.0635387,10.1238,-0.257372,-0.407574,3.33057,3.97729,-0.0241699
72,-1.68198e-37,-0.228412,0.0650336,10.1459,-0.330987,-0.382497,-6.32178,3.97705,-0.020752
73,-1.68291e-37,-0.21696,0.066407,10.1147,-0.285573,-0.440078,6.06006,3.97607,-0.0183105
74,-1.68384e-37,-0.199986,0.0511214,10.1219,-0.281449,-0.323764,-0.341309,3.97681,-0.0251465
75,-1.68478e-37,-0.224707,0.0729662,10.1496,-0.315029,-0.426759,4.74927,3.97559,-0.0183105
76,-1.68571e-37,-0.234792,0.0947108,10.137,-0.352913,-0.451015,7.39868,3.97534,-0.0251465
77,-1.68665e-37,-0.247267,0.0743178,10.126,-0.269078,-0.435391,-0.131592,3.97705,-0.0197754
78,-1.68758e-37,-0.230329,0.0590682,10.1295,-0.364824,-0.498402,-7.76123,3.97461,-0.020752
79,-1.68851e-37,-0.211088,0.0692538,10.1368,-0.346509,-0.493868,-2.54517,3.97729,-0.0202637
80,-1.68945e-37,-0.213942,0.065062,10.1625,-0.448838,-0.54858,6.74438,3.97412,-0.0158691
81,-1.69038e-37,-0.251644,0.0669435,10.1407,-0.325352,-0.487234,-7.89233,3.97461,-0.0231934
82,-1.69132e-37,-0.225136,0.0752551,10.1443,-0.295486,-0.458162,2.54443,3.97705,-0.0197754
83,-1.69225e-37,-0.219106,0.0619293,10.1497,-0.396124,-0.291516,1.34253,3.97314,-0.0222168
84,-1.69319e-37,-0.229835,0.048718,10.1552,-0.338902,-0.356243,4.79932,3.97754,-0.0178223
85,-1.69412e-37,-0.223877,0.0556777,10.1168,-0.445841,-0.38803,-7.0542,3.97559,-0.0187988
86,-1.69505e-37,-0.224928,0.062337,10.1333,-0.360264,-0.331218,-1.85889,3.97412,-0.0212402
87,-1.69599e-37,-0.213484,0.0505418,10.1607,-0.324712,-0.402067,-2.59448,3.9751,-0.0183105
88,-1.69692e-37,-0.225544,0.0799113,10.0987,-0.287802,-0.302376,-2.33252,3.9751,-0.0236816
89,-1.69786e-37,-0.224771,0.0903905,10.1244,-0.385494,-0.439463,-2.12549,3.97729,-0.020752
90,-1.69879e-37,-0.237124,0.0735243,10.139,-0.369767,-0.48854,7.47852,3.97437,-0.0202637
91,-1.69972e-37,-0.229055,0.0803267,10.1171,-0.369998,-0.546121,-0.131592,3.97705,-0.0212402
92,-1.70066e-37,-0.210272,0.0612426,10.1114,-0.467306,-0.412466,-7.16016,3.97656,-0.0197754
93,-1.70159e-37,-0.216974,0.0458283,10.1572,-0.285573,-0.423711,-3.74805,3.97485,-0.0227051
94,-1.70253e-37,-0.22392,0.045814,10.1114,-0.431805,-0.455165,7.26929,3.97412,-0.0202637
95,-1.70346e-37,-0.213799,0.0485032,10.1517,-0.211471,-0.413132,0.445557,3.97754,-0.0236816
96,-1.7044e-37,-0.214864,0.0630094,10.1317,-0.203915,-0.447301,-1.49072,3.97363,-0.0251465
97,-1.70533e-37,-0.249062,0.056007,10.1392,-0.37489,-0.541152,4.0647,3.97754,-0.0231934
98,-1.70626e-37,-0.236981,0.0661996,10.1557,-0.515358,-0.684361,-0.501465,3.979,-0.0246582
99,-1.7072e-37,-0.200637,0.0866996,10.1794,-0.281398,-0.530496,7.10864,3.97656,-0.0217285
100,-1.70813e-37,-0.218541,0.0851546,10.1191,-0.172333,-0.43475,-2.33423,3.97656,-0.0227051
101,-1.70907e-37,-0.227189,0.0740891,10.1265,-0.227582,-0.383445,-4.2229,3.97681,-0.0202637
102,-1.71e-37,-0.223362,0.0573372,10.1099,-0.425324,-0.307755,4.32886,3.97607,-0.0222168
103,-1.71093e-37,-0.237596,0.0440329,10.141,-0.403168,-0.558723,2.96631,3.9751,-0.0251465
104,-1.71187e-37,-0.224163,0.0415654,10.1135,-0.370382,-0.413363,-1.12891,3.97754,-0.0212402
105,-1.7128e-37,-0.206646,0.0496765,10.1519,-0.296408,-0.386135,6.21606,3.97705,-0.0251465
106,-1.71374e-37,-0.216302,0.0972501,10.1248,-0.365003,-0.642405,-3.11523,3.97217,-0.0192871
107,-1.71467e-37,-0.212182,0.071042,10.1247,-0.555675,-0.41974,-5.8501,3.97778,-0.020752
108,-1.71561e-37,-0.209743,0.0646617,10.1375,-0.464002,-0.374198,-7.57397,3.97217,-0.0217285
109,-1.71654e-37,-0.222453,0.0535107,10.1009,-0.42453,-0.369793,-7.99512,3.97314,-0.0202637
110,-1.71747e-37,-0.204857,0.0707202,10.1302,-0.517766,-0.528037,-3.59082,3.97461,-0.0217285
111,-1.71841e-37,-0.226266,0.0613213,10.1248,-0.727342,-0.492997,-1.75293,3.97363,-0.0183105
112,-1.71934e-37,-0.207397,0.0526092,10.121,-0.66095,-0.590613,-0.601562,3.97534,-0.0217285
113,-1.72028e-37,-0.224399,0.062852,10.1505,-0.619557,-0.410878,-3.48926,3.97729,-0.0197754
114,-1.72121e-37,-0.218083,0.0747333,10.1414,-0.435211,-0.450016,6.01221,3.97266,-0.0202637
115,-1.72214e-37,-0.228412,0.0725086,10.1452,-0.457086,-0.515486,-3.79932,3.97363,-0.0202637
116,-1.72308e-37,-0.215,0.0586962,10.1578,-0.334061,-0.362749,-7.94409,3.97437,-0.0192871
117,-1.72401e-37,-0.227954,0.0479527,10.0938,-0.441922,-0.320537,-2.54004,3.97363,-0.0239258
118,-1.72495e-37,-0.21259,0.0411929,10.1449,-0.45642,-0.441589,-6.4209,3.97266,-0.0153809
119,-1.72588e-37,-0.218455,0.0791891,10.1397,-0.396893,-0.532289,-7.31128,3.97168,-0.0236816
120,-1.72682e-37,-0.20289,0.0800763,10.1507,-0.417205,-0.479985,-5.79443,3.9751,-0.0217285
121,-1.72775e-37,-0.235422,0.082365,10.1052,-0.333523,-0.313569,-1.70117,3.97412,-0.0212402
122,-1.72868e-37,-0.242546,0.069261,10.107,-0.532187,-0.478525,5.59131,3.97339,-0.0231934
123,-1.72962e-37,-0.245786,0.0520584,10.1161,-0.508135,-0.544533,-2.96118,3.97485,-0.017334
124,-1.73055e-37,-0.233369,0.072959,10.1326,-0.643532,-0.543637,-3.91309,3.98047,-0.0222168
125,-1.73149e-37,-0.228891,0.0644831,10.1545,-0.543355,-0.511824,3.43335,3.979,-0.0212402
126,-1.73242e-37,-0.235522,0.0714569,10.1217,-0.434622,-0.420765,6.63867,3.97485,-0.020752
127,-1.73335e-37,-0.225293,0.0758344,10.1638,-0.522582,-0.539717,7.63232,3.97729,-0.0236816
128,-1.73429e-37,-0.210651,0.0512141,10.1306,-0.545788,-0.438003,4.06274,3.979,-0.0192871
129,-1.73522e-37,-0.200995,0.0410216,10.1378,-0.41536,-0.488592,-0.552002,3.97778,-0.0227051
130,-1.73616e-37,-0.221788,0.0630094,10.129,-0.459596,-0.458239,-5.26978,3.9751,-0.0192871
131,-1.73709e-37,-0.226101,0.0751263,10.153,-0.504549,-0.505113,-1.70142,3.97412,-0.0202637
132,-1.73803e-37,-0.234821,0.0637102,10.1457,-0.4316,-0.330962,1.80908,3.97729,-0.0183105
133,-1.73896e-37,-0.219378,0.0699763,10.1603,-0.354911,-0.469278,5.53711,3.97485,-0.020752
134,-1.73989e-37,-0.211395,0.0731019,10.1438,-0.372021,-0.401939,-4.7981,3.97534,-0.020752
135,-1.74083e-37,-0.209056,0.0782734,10.1145,-0.419151,-0.494688,1.76025,3.97461,-0.0183105
136,-1.74176e-37,-0.223126,0.0632168,10.1383,-0.271229,-0.462106,-5.95093,3.97437,-0.020752
137,-1.7427e-37,-0.242789,0.0504418,10.1512,-0.425939,-0.492741,-3.64038,3.97266,-0.0192871
138,-1.74363e-37,-0.22691,0.0677587,10.1549,-0.338825,-0.490743,-3.06543,3.97412,-0.0187988
139,-1.74456e-37,-0.210215,0.0561212,10.1273,-0.411569,-0.514154,-5.47583,3.97217,-0.020752
140,-1.7455e-37,-0.234563,0.070713,10.1441,-0.389285,-0.586771,7.68945,3.97363,-0.0197754
141,-1.74643e-37,-0.231988,0.0646331,10.1441,-0.513591,-0.520763,-5.00073,3.96997,-0.0217285
142,-1.74737e-37,-0.241065,0.0423019,10.1294,-0.359445,-0.285266,4.43945,3.97192,-0.0178223
143,-1.7483e-37,-0.242403,0.0436681,10.1312,-0.453628,-0.484263,-4.32349,3.97339,-0.0222168
144,-1.74924e-37,-0.247195,0.0488396,10.113,-0.523068,-0.442845,-2.33447,3.97681,-0.0256348
145,-1.75017e-37,-0.22588,0.0621007,10.1276,-0.484468,-0.512362,7.4209,3.97827,-0.0222168
146,-1.7511e-37,-0.212346,0.0536322,10.144,-0.483699,-0.42179,-7.99805,3.9751,-0.0222168
147,-1.75204e-37,-0.226395,0.0533747,10.1404,-0.398429,-0.417973,3.85791,3.9751,-0.0178223
148,-1.75297e-37,-0.223927,0.0677875,10.0985,-0.386416,-0.518407,7.58081,3.97656,-0.0241699
149,-1.75391e-37,-0.228376,0.0633956,10.1388,-0.569891,-0.47622,-4.84888,3.97388,-0.0212402
150,-1.75484e-37,-0.215472,0.0440687,10.1257,-0.359316,-0.451528,-5.53369,3.97632,-0.0197754
151,-1.75577e-37,-0.236451,0.049505,10.1425,-0.468484,-0.482316,-6.47339,3.97266,-0.0212402
152,-1.75671e-37,-0.21362,0.0499842,10.1533,-0.340311,-0.389592,-2.7019,3.97705,-0.0183105
153,-1.75764e-37,-0.216731,0.059061,10.1223,-0.262418,-0.413183,-0.599609,3.97388,-0.0236816
154,-1.75858e-37,-0.232496,0.0534389,10.148,-0.520609,-0.56838,-7.52197,3.97241,-0.0178223
155,-1.75951e-37,-0.226459,0.0378099,10.1589,-0.332319,-0.477654,-0.231201,3.9729,-0.0212402
156,-1.76045e-37,-0.202733,0.0789602,10.1462,-0.338825,-0.357933,-4.95264,3.97314,-0.0246582
157,-1.76138e-37,-0.226702,0.0554274,10.1408,-0.35445,-0.429961,3.54468,3.97412,-0.0197754
158,-1.76231e-37,-0.233712,0.055456,10.1079,-0.450785,-0.400683,4.06958,3.97388,-0.0241699
159,-1.76325e-37,-0.211917,0.0739175,10.1573,-0.318974,-0.381626,-1.91431,3.97632,-0.017334
160,-1.76418e-37,-0.228562,0.0539897,10.1408,-0.365156,-0.187675,-5.69287,3.97754,-0.0251465
161,-1.76512e-37,-0.226788,0.044376,10.1316,-0.282218,-0.472711,0.601074,3.97876,-0.0178223
162,-1.76605e-37,-0.230257,0.0427168,10.0859,-0.263314,-0.400683,-2.073,3.97754,-0.0187988
163,-1.76698e-37,-0.222003,0.0380817,10.1297,-0.291772,-0.451195,-3.28076,3.97827,-0.0202637
164,-1.76792e-37,-0.213577,0.0464649,10.1462,-0.387543,-0.429218,-4.1123,3.97241,-0.0168457
165,-1.76885e-37,-0.210544,0.0679307,10.1373,-0.334138,-0.332703,1.54395,3.97949,-0.0197754
166,-1.76979e-37,-0.223033,0.0661566,10.1246,-0.409239,-0.378578,-6.58228,3.97559,-0.0183105
167,-1.77072e-37,-0.207511,0.0686172,10.1446,-0.350044,-0.386237,4.22217,3.97729,-0.0202637
168,-1.77166e-37,-0.212761,0.0497909,10.1647,-0.474709,-0.53585,6.98486,3.97095,-0.0178223
169,-1.77259e-37,-0.222504,0.067873,10.154,-0.348251,-0.343179,-4.90137,3.97412,-0.0183105
170,-1.77352e-37,-0.211831,0.0546692,10.1116,-0.369588,-0.332857,4.9624,3.97314,-0.0227051
171,-1.77446e-37,-0.213012,0.0484176,10.1427,-0.351171,-0.431728,5.11792,3.97461,-0.0183105
172,-1.77539e-37,-0.237467,0.0708346,10.1286,-0.323047,-0.334163,6.21631,3.97681,-0.020752
173,-1.77633e-37,-0.238991,0.0650122,10.1249,-0.270051,-0.395509,5.95532,3.97607,-0.017334
174,-1.77726e-37,-0.231459,0.0440544,10.1485,-0.272587,-0.541203,-6.05615,3.97461,-0.0183105
175,-1.77819e-37,-0.221295,0.0582885,10.1247,-0.226046,-0.410955,1.18213,3.97583,-0.0251465
176,-1.77913e-37,-0.231445,0.0619079,10.1341,-0.233986,-0.364491,6.48364,3.97314,-0.017334
177,-1.78006e-37,-0.22799,0.0471015,10.1083,-0.297765,-0.503499,2.38672,3.97729,-0.020752
178,-1.781e-37,-0.224649,0.0572587,10.145,-0.316694,-0.370612,5.427,3.97876,-0.0202637
179,-1.78193e-37,-0.22392,0.0717502,10.1177,-0.209243,-0.48831,-5.74292,3.97583,-0.0241699
180,-1.78286e-37,-0.252703,0.0594618,10.1344,-0.341438,-0.463387,2.54443,3.97705,-0.0187988
181,-1.7838e-37,-0.235622,0.060427,10.1214,-0.379014,-0.554574,-1.23291,3.97681,-0.0217285
182,-1.78473e-37,-0.217597,0.0719007,10.1488,-0.135294,-0.378041,-5.42822,3.97583,-0.0241699
183,-1.78567e-37,-0.21917,0.068317,10.1324,-0.330782,-0.406062,7.37134,3.97632,-0.020752
184,-1.7866e-37,-0.210587,0.0403563,10.1082,-0.277377,-0.451246,7.13477,3.97656,-0.0197754
185,-1.78754e-37,-0.203963,0.0412648,10.143,-0.357805,-0.466461,4.37939,3.97754,-0.0212402
186,-1.78847e-37,-0.223555,0.0415866,10.1304,-0.353502,-0.355935,4.75269,3.97314,-0.0217285
187,-1.7894e-37,-0.224184,0.0499769,10.1616,-0.140955,-0.325557,-1.44141,3.97583,-0.0217285
188,-1.79034e-37,-0.210987,0.062709,10.114,-0.379936,-0.406908,-3.85547,3.97656,-0.0187988
189,-1.79127e-37,-0.215537,0.0658276,10.1325,-0.36417,-0.538322,0.524902,3.97656,-0.0236816
190,-1.79221e-37,-0.236673,0.0622872,10.1455,-0.31339,-0.332319,4.12036,3.9751,-0.0183105
191,-1.79314e-37,-0.2299,0.0817212,10.153,-0.153096,-0.272997,0.0795898,3.97632,-0.0202637
192,-1.79407e-37,-0.231924,0.0689606,10.1383,-0.330885,-0.516024,2.70117,3.97729,-0.0227051
193,-1.79501e-37,-0.21319,0.0549696,10.1471,-0.254144,-0.31526,5.43237,3.97461,-0.0192871
194,-1.79594e-37,-0.225279,0.0699546,10.1254,-0.209781,-0.454525,-5.2229,3.979,-0.0251465
195,-1.79688e-37,-0.225315,0.0495764,10.1234,-0.284625,-0.518893,-6.74438,3.97949,-0.0178223
196,-1.79781e-37,-0.222318,0.0582313,10.129,-0.350992,-0.415181,2.20654,3.97461,-0.0241699
197,-1.79875e-37,-0.216624,0.0409212,10.1434,-0.349071,-0.48726,-0.284912,3.97388,-0.0187988
198,-1.79968e-37,-0.222654,0.0590896,10.1364,-0.407113,-0.465462,-2.4397,3.97705,-0.0178223
199,-1.80061e-37,-0.225064,0.0694901,10.1494,-0.298534,-0.437773,-2.43872,3.97632,-0.020752
200,-1.80155e-37,-0.237489,0.0716931,10.1221,-0.308652,-0.367154,-6.74072,3.97681,-0.0187988
201,-1.80248e-37,-0.21676,0.072408,10.1201,-0.254375,-0.46185,-4.53955,3.97803,-0.0217285
202,-1.80342e-37,-0.221531,0.072251,10.122,-0.286675,-0.403399,-5.34888,3.97534,-0.0187988
203,-1.80435e-37,-0.212461,0.0570153,10.1107,-0.260471,-0.310291,3.04517,3.97485,-0.0192871
204,-1.80528e-37,-0.225079,0.0403778,10.1364,-0.225636,-0.379833,5.9043,3.9751,-0.0212402
205,-1.80622e-37,-0.233204,0.0532531,10.1348,-0.257628,-0.461825,-3.70044,3.97827,-0.0192871
206,-1.80715e-37,-0.227339,0.0435463,10.1365,-0.271665,-0.495738,1.44238,3.97705,-0.0227051
207,-1.80809e-37,-0.220465,0.0650837,10.1239,-0.211138,-0.251122,3.27734,3.97803,-0.0168457
208,-1.80902e-37,-0.226531,0.0813207,10.1443,-0.281167,-0.404013,-6.03467,3.97827,-0.0217285
209,-1.80996e-37,-0.230493,0.0592186,10.1368,-0.437542,-0.529036,-0.448486,3.97876,-0.0192871
210,-1.81089e-37,-0.223812,0.0656202,10.146,-0.314748,-0.350736,1.96655,3.97754,-0.0217285
211,-1.81182e-37,-0.203842,0.0537035,10.1255,-0.353118,-0.371073,7.60767,3.97607,-0.0236816
212,-1.81276e-37,-0.202976,0.056729,10.1383,-0.268335,-0.228505,2.99048,3.97656,-0.0168457
213,-1.81369e-37,-0.217747,0.0497838,10.1238,-0.27169,-0.422251,-6.37549,3.97827,-0.0251465
214,-1.81463e-37,-0.225951,0.051386,10.1423,-0.326582,-0.473838,2.85596,3.97925,-0.0192871
215,-1.81556e-37,-0.224335,0.0690679,10.1571,-0.361494,-0.313877,1.28369,3.97803,-0.0227051
216,-1.81649e-37,-0.235665,0.0583958,10.1261,-0.291157,-0.213136,-2.17529,3.97559,-0.0202637
217,-1.81743e-37,-0.23952,0.0797685,10.1612,-0.298508,-0.431241,7.68555,3.97656,-0.0187988
218,-1.81836e-37,-0.239563,0.0629522,10.1573,-0.288519,-0.349634,-1.70557,3.97729,-0.0246582
219,-1.8193e-37,-0.198477,0.0796469,10.1259,-0.382216,-0.365899,-5.74536,3.97778,-0.017334
220,-1.82023e-37,-0.210501,0.0336255,10.142,-0.33985,-0.451758,-7.16064,3.97681,-0.020752
221,-1.82117e-37,-0.227833,0.0449983,10.1314,-0.224432,-0.244027,6.63745,3.97583,-0.020752
222,-1.8221e-37,-0.216703,0.0425809,10.1203,-0.226455,-0.375684,1.12573,3.97876,-0.0217285
223,-1.82303e-37,-0.222432,0.0662923,10.1262,-0.25312,-0.460134,4.95728,3.97705,-0.0227051
224,-1.82397e-37,-0.240035,0.0724011,10.11,-0.340003,-0.466691,-1.60107,3.97754,-0.0217285
225,-1.8249e-37,-0.218763,0.0745038,10.1318,-0.365797,-0.423147,-0.260742,3.97559,-0.0222168
226,-1.82584e-37,-0.20332,0.0751478,10.1389,-0.301018,-0.385187,-0.0249023,3.97583,-0.0192871
227,-1.82677e-37,-0.2197,0.0682882,10.1244,-0.254913,-0.45163,0.290283,3.97559,-0.0212402
228,-1.8277e-37,-0.227046,0.0518009,10.1225,-0.33798,-0.366693,-3.64697,3.97754,-0.0212402
229,-1.82864e-37,-0.209428,0.057702,10.1444,-0.303785,-0.355526,2.28369,3.97559,-0.0192871
230,-1.82957e-37,-0.205336,0.0667291,10.1096,-0.288596,-0.254119,5.90356,3.97534,-0.026123
231,-1.83051e-37,-0.212139,0.0551341,10.1517,-0.368973,-0.439899,-3.38477,3.97778,-0.0192871
232,-1.83144e-37,-0.215215,0.0624586,10.1244,-0.248407,-0.423378,5.2771,3.9729,-0.0217285
233,-1.83238e-37,-0.213162,0.0548265,10.117,-0.361827,-0.392103,0.814209,3.97607,-0.0187988
234,-1.83331e-37,-0.234084,0.0586462,10.1375,-0.210933,-0.387031,-5.42798,3.97559,-0.020752
235,-1.83424e-37,-0.220722,0.0635673,10.1191,-0.289133,-0.385802,-7.21411,3.97778,-0.0192871
236,-1.83518e-37,-0.225565,0.0671507,10.1138,-0.316131,-0.498376,7.73633,3.97778,-0.0168457
237,-1.83611e-37,-0.224442,0.0663927,10.1394,-0.182143,-0.289697,1.80884,3.97778,-0.0231934
238,-1.83705e-37,-0.222833,0.0381676,10.1757,-0.185421,-0.417051,-3.53906,3.97534,-0.0212402
239,-1.83798e-37,-0.21299,0.0564788,10.1264,-0.310957,-0.428552,5.43506,3.97266,-0.0251465
240,-1.83891e-37,-0.228755,0.06243,10.1139,-0.400888,-0.493842,-6.7356,3.97266,-0.0187988
241,-1.83985e-37,-0.229771,0.0580739,10.1304,-0.249252,-0.404039,-4.79688,3.97461,-0.0217285
242,-1.84078e-37,-0.208505,0.0715998,10.1229,-0.288288,-0.282679,-0.0549316,3.97852,-0.0222168
243,-1.84172e-37,-0.217117,0.0696188,10.1359,-0.189622,-0.390873,1.75854,3.97607,-0.0178223
244,-1.84265e-37,-0.205365,0.0706272,10.1431,-0.235702,-0.235497,0.605957,3.97485,-0.0241699
245,-1.84359e-37,-0.218727,0.0545905,10.1302,-0.237572,-0.349148,-2.33496,3.97729,-0.0217285
246,-1.84452e-37,-0.216889,0.0451487,10.1228,-0.240851,-0.337365,7.44995,3.97632,-0.0202637
247,-1.84545e-37,-0.214206,0.042531,10.152,-0.183628,-0.351888,1.96704,3.97705,-0.0187988
248,-1.84639e-37,-0.211617,0.0534392,10.1339,-0.277633,-0.40637,0.0837402,3.97314,-0.0187988
249,-1.84732e-37,-0.21113,0.0531671,10.1265,-0.157528,-0.251814,6.06274,3.97388,-0.0236816
250,-1.84826e-37,-0.22289,0.0681809,10.1269,-0.227864,-0.18993,6.84766,3.97559,-0.0202637
251,-1.84919e-37,-0.235071,0.0719648,10.1382,-0.267464,-0.480754,1.15674,3.97485,-0.0227051
252,-1.85012e-37,-0.22892,0.0733238,10.129,-0.312724,-0.309189,7.58276,3.97485,-0.020752
253,-1.85106e-37,-0.189372,0.0435537,10.1335,-0.295665,-0.489821,-0.0751953,3.97412,-0.0192871
254,-1.85199e-37,-0.224621,0.0537965,10.147,-0.345715,-0.449197,-7.05151,3.97363,-0.0231934
255,-1.85293e-37,-0.237003,0.0427022,10.1636,-0.327965,-0.335137,-7.68311,3.9751,-0.0192871
256,-1.85386e-37,-0.230357,0.0681024,10.1291,-0.281782,-0.341515,-2.99023,3.97681,-0.0229492
257,-1.8548e-37,-0.226588,0.0583887,10.1307,-0.277658,-0.298867,-4.06494,3.97632,-0.0197754
258,-1.85573e-37,-0.238855,0.0970066,10.1388,-0.341258,-0.489078,2.07349,3.97583,-0.020752
259,-1.85666e-37,-0.228576,0.0706343,10.1237,-0.233218,-0.41764,-4.4043,3.97485,-0.0231934
260,-1.8576e-37,-0.240665,0.0708561,10.1294,-0.319947,-0.419074,-0.654297,3.97559,-0.0187988
261,-1.85853e-37,-0.244956,0.0682596,10.1716,-0.354399,-0.507213,0.864746,3.97754,-0.0241699
262,-1.85947e-37,-0.226616,0.0656488,10.131,-0.348789,-0.422584,-1.2793,3.97217,-0.0212402
263,-1.8604e-37,-0.198377,0.0656345,10.1361,-0.368358,-0.230656,-1.91113,3.97412,-0.0236816
264,-1.86133e-37,-0.204936,0.0612927,10.1728,-0.362774,-0.406165,3.91211,3.97388,-0.0217285
265,-1.86227e-37,-0.196117,0.057373,10.125,-0.244667,-0.343538,-1.4917,3.97437,-0.0227051
266,-1.8632e-37,-0.199586,0.0441688,10.1432,-0.190467,-0.338262,3.70166,3.97437,-0.0251465
267,-1.86414e-37,-0.219378,0.0778301,10.1477,-0.396483,-0.537054,0.499268,3.97632,-0.0202637
268,-1.86507e-37,-0.226881,0.0690035,10.1129,-0.348149,-0.293693,-5.84717,3.97534,-0.0217285
269,-1.86601e-37,-0.218262,0.0807628,10.1276,-0.258012,-0.427041,-6.73853,3.9751,-0.0187988
270,-1.86694e-37,-0.218226,0.0618649,10.1457,-0.382075,-0.328746,-2.19995,3.97437,-0.0197754
271,-1.86787e-37,-0.22432,0.0744184,10.1515,-0.360111,-0.392103,6.16431,3.97656,-0.0222168
272,-1.86881e-37,-0.217268,0.0705342,10.1092,-0.45934,-0.430729,2.12451,3.97705,-0.0163574
273,-1.86974e-37,-0.211231,0.0620581,10.1255,-0.335111,-0.356166,-6.05615,3.97461,-0.0246582
274,-1.87068e-37,-0.226094,0.0439113,10.1347,-0.314722,-0.470047,-4.85083,3.97559,-0.0183105
275,-1.87161e-37,-0.227925,0.059855,10.1533,-0.369306,-0.404346,7.53198,3.97388,-0.0227051
276,-1.87254e-37,-0.227704,0.0616074,10.1241,-0.316233,-0.414618,-2.51831,3.97705,-0.0236816
277,-1.87348e-37,-0.224864,0.0664787,10.1315,-0.25604,-0.415745,-5.82104,3.97534,-0.020752
278,-1.87441e-37,-0.218462,0.0636816,10.1551,-0.386109,-0.371483,3.7522,3.97559,-0.0241699
279,-1.87535e-37,-0.225787,0.0659492,10.115,-0.393921,-0.349839,-0.65332,3.97485,-0.017334
280,-1.87628e-37,-0.222339,0.0429526,10.1367,-0.379321,-0.58736,-6.47241,3.97217,-0.0256348
281,-1.87722e-37,-0.206631,0.0376669,10.1602,-0.238289,-0.431011,1.18188,3.97583,-0.0192871
282,-1.87815e-37,-0.203928,0.0561856,10.1183,-0.387236,-0.412338,1.70776,3.9751,-0.0227051
283,-1.87908e-37,-0.221853,0.0510641,10.1204,-0.344768,-0.369511,2.9646,3.97656,-0.020752
284,-1.88002e-37,-0.221001,0.085126,10.1411,-0.328989,-0.387825,-2.41187,3.97583,-0.0178223
285,-1.88111e-37,-0.25311,0.0938238,10.1326,-0.294845,-0.346279,-6.00659,3.97681,-0.0227051
286,-1.88298e-37,-0.245486,0.087515,10.1361,-0.31006,-0.333753,5.06616,3.97412,-0.0148926
287,-1.88485e-37,-0.229599,0.0895035,10.1689,-0.396355,-0.273073,-7.21289,3.97656,-0.0236816
288,-1.88672e-37,-0.234935,0.0779731,10.1871,-0.410494,-0.349199,6.63965,3.97412,-0.0192871
289,-1.88859e-37,-0.209013,0.0587034,10.1223,-0.419971,-0.44515,-3.07129,3.97852,-0.0183105
290,-1.89045e-37,-0.20671,0.0562859,10.1168,-0.345638,-0.498351,4.96167,3.97363,-0.0251465
291,-1.89232e-37,-0.221395,0.045814,10.1041,-0.466947,-0.473351,1.18726,3.97168,-0.0187988
292,-1.89419e-37,-0.234306,0.0488325,10.152,-0.333702,-0.307089,5.0127,3.97485,-0.020752
293,-1.89606e-37,-0.227632,0.070434,10.1266,-0.470738,-0.310803,0.968994,3.97803,-0.0217285
294,-1.89793e-37,-0.216431,0.0655701,10.1245,-0.313621,-0.481573,3.43799,3.97534,-0.0183105
295,-1.8998e-37,-0.229585,0.0805913,10.1232,-0.392666,-0.514411,4.0127,3.97729,-0.0227051
296,-1.90166e-37,-0.242853,0.087973,10.1346,-0.367795,-0.173434,-4.06348,3.9751,-0.020752
297,-1.90353e-37,-0.21108,0.0620581,10.1263,-0.525553,-0.376017,3.85718,3.97583,-0.0241699
298,-1.9054e-37,-0.224492,0.0595975,10.1687,-0.397687,-0.489078,-0.0756836,3.97461,-0.0192871
299,-1.90727e-37,-0.226473,0.0541969,10.1357,-0.396175,-0.325429,3.1748,3.97607,-0.0222168
300,-1.90914e-37,-0.218662,0.0609279,10.1137,-0.287853,-0.431369,2.17993,3.97485,-0.0231934
301,-1.91101e-37,-0.221416,0.0585818,10.1339,-0.265876,-0.527039,-3.11816,3.97461,-0.020752
302,-1.91287e-37,-0.21892,0.0620935,10.1157,-0.362057,-0.379987,-3.90479,3.97412,-0.0231934
303,-1.91474e-37,-0.219993,0.0557564,10.1431,-0.317181,-0.297612,-0.0229492,3.97412,-0.0158691
304,-1.91661e-37,-0.231273,0.0723296,10.1527,-0.36362,-0.41367,0.10376,3.97778,-0.0251465
305,-1.91848e-37,-0.233612,0.0829158,10.1585,-0.297791,-0.44953,0.184326,3.97632,-0.0187988
306,-1.92035e-37,-0.231681,0.071414,10.1601,-0.23373,-0.459852,-6.53223,3.97754,-0.0227051
307,-1.92222e-37,-0.222732,0.0675801,10.1215,-0.379424,-0.464591,5.3291,3.97339,-0.0202637
308,-1.92408e-37,-0.221295,0.0410716,10.1394,-0.368947,-0.468766,-6.32007,3.97583,-0.0178223
309,-1.92595e-37,-0.230043,0.0685954,10.14,-0.35801,-0.391129,-6.26318,3.97241,-0.0217285
310,-1.92782e-37,-0.226065,0.0681454,10.1253,-0.259908,-0.324327,-5.13989,3.97607,-0.0202637
311,-1.92969e-37,-0.211424,0.0812275,10.1546,-0.352221,-0.441,-4.21997,3.97437,-0.0217285
312,-1.93156e-37,-0.208191,0.0661568,10.1397,-0.35363,-0.373532,1.0188,3.97998,-0.0202637
313,-1.93343e-37,-0.202633,0.0523517,10.1522,-0.381703,-0.360725,2.14917,3.97803,-0.0227051
314,-1.93529e-37,-0.197977,0.072358,10.1159,-0.337237,-0.456753,-0.970459,3.97656,-0.0251465
315,-1.93716e-37,-0.211603,0.0743538,10.1272,-0.280271,-0.493356,0.286133,3.97876,-0.0217285
316,-1.93903e-37,-0.218248,0.0529597,10.0922,-0.330782,-0.352401,-0.964111,3.97192,-0.0241699
317,-1.9409e-37,-0.220072,0.05728,10.1454,-0.4243,-0.552115,-1.25562,3.97437,-0.0222168
318,-1.94277e-37,-0.224234,0.0719505,10.1275,-0.390284,-0.464821,-6.58203,3.97559,-0.0236816
319,-1.94464e-37,-0.237989,0.0701694,10.1424,-0.389413,-0.281603,-4.59082,3.97729,-0.0202637
320,-1.9465e-37,-0.237381,0.0791033,10.1243,-0.384085,-0.508443,-4.59253,3.97852,-0.0168457
321,-1.94837e-37,-0.235944,0.0622152,10.113,-0.379577,-0.486337,7.32056,3.9751,-0.0222168
322,-1.95024e-37,-0.224463,0.0574087,10.1127,-0.367769,-0.468484,5.74731,3.97461,-0.0227051
323,-1.95211e-37,-0.18867,0.0506925,10.1431,-0.377093,-0.387671,2.44312,3.97412,-0.0231934
324,-1.95398e-37,-0.208298,0.049512,10.1435,-0.349301,-0.516767,0.264404,3.97534,-0.0227051
325,-1.95585e-37,-0.210465,0.0582313,10.1529,-0.300173,-0.379552,3.69702,3.97803,-0.0236816
326,-1.95771e-37,-0.220958,0.0662568,10.1258,-0.324455,-0.384342,-7.78662,3.97412,-0.0241699
327,-1.95958e-37,-0.218662,0.0638894,10.1257,-0.332319,-0.413055,3.72314,3.97803,-0.0187988
328,-1.96145e-37,-0.220837,0.0744253,10.137,-0.329809,-0.339594,-7.79272,3.979,-0.0256348
329,-1.96332e-37,-0.235565,0.077358,10.0989,-0.455191,-0.333446,-7.94653,3.97607,-0.0168457
330,-1.96519e-37,-0.229942,0.0886523,10.1357,-0.365118,-0.288967,6.14453,3.97168,-0.0231934
331,-1.96706e-37,-0.213734,0.0488825,10.1237,-0.300967,-0.427886,6.0354,3.97485,-0.0246582
332,-1.96892e-37,-0.20671,0.0569581,10.1421,-0.311879,-0.309727,4.74878,3.97583,-0.0158691
333,-1.97079e-37,-0.216116,0.0461786,10.1384,-0.32817,-0.365157,-0.969727,3.97607,-0.026123
334,-1.97266e-37,-0.21465,0.0603271,10.1405,-0.395305,-0.427373,5.79614,3.97729,-0.0197754
335,-1.97453e-37,-0.218205,0.052788,10.135,-0.335982,-0.421047,5.53369,3.97754,-0.0197754
336,-1.9764e-37,-0.229985,0.0681883,10.1099,-0.382267,-0.434443,0.287354,3.97778,-0.0222168
337,-1.97827e-37,-0.21573,0.0796541,10.1117,-0.366181,-0.277377,4.64185,3.97729,-0.0222168
338,-1.98013e-37,-0.218984,0.0678089,10.1445,-0.430063,-0.412773,-2.8501,3.96997,-0.0227051
339,-1.982e-37,-0.231259,0.0738744,10.1229,-0.254426,-0.36572,3.43726,3.97607,-0.0183105
340,-1.98387e-37,-0.231766,0.0729518,10.1614,-0.335367,-0.362441,7.99731,3.979,-0.0246582
341,-1.98574e-37,-0.223147,0.0671294,10.1245,-0.436889,-0.406869,5.24341,3.97876,-0.0178223
342,-1.98761e-37,-0.233176,0.0414364,10.128,-0.358125,-0.345113,-6.92627,3.97803,-0.0197754
343,-1.98948e-37,-0.227024,0.0443403,10.1243,-0.489283,-0.302248,0.685303,3.97437,-0.0231934
344,-1.99134e-37,-0.234327,0.0583958,10.1485,-0.424249,-0.537054,-0.974121,3.97949,-0.0212402
345,-1.99321e-37,-0.234112,0.0602988,10.1138,-0.452783,-0.599834,7.97144,3.97852,-0.0212402
346,-1.99508e-37,-0.215908,0.0655847,10.1337,-0.469675,-0.551462,2.62207,3.97754,-0.0168457
347,-1.99695e-37,-0.209879,0.0551839,10.1481,-0.506739,-0.517139,3.46289,3.97632,-0.0241699
348,-1.99882e-37,-0.201174,0.0631238,10.15,-0.243566,-0.363927,-6.42212,3.97388,-0.0197754
349,-2.00069e-37,-0.208169,0.0595905,10.1501,-0.295255,-0.408726,5.27417,3.97559,-0.0187988
350,-2.00255e-37,-0.208155,0.0597477,10.1208,-0.368461,-0.47143,-4.06104,3.97339,-0.0231934
351,-2.00442e-37,-0.207554,0.0477309,10.1499,-0.486619,-0.328605,7.74023,3.97461,-0.017334
352,-2.00629e-37,-0.235407,0.0477166,10.1103,-0.493766,-0.607211,-6.6333,3.97461,-0.0183105
353,-2.00816e-37,-0.239542,0.0605131,10.0923,-0.488054,-0.552243,-2.70117,3.97656,-0.0187988
354,-2.01003e-37,-0.218612,0.0743896,10.1307,-0.497505,-0.535414,-0.392822,3.97607,-0.0192871
355,-2.0119e-37,-0.224678,0.0795543,10.1346,-0.719683,-0.74937,-3.51196,3.97485,-0.0212402
356,-2.01376e-37,-0.22299,0.0602201,10.1306,-0.533583,-0.635989,-4.82495,3.97607,-0.013916
357,-2.01563e-37,-0.218949,0.0423448,10.154,-0.58526,-0.670658,-1.96704,3.97681,-0.0217285
358,-2.0175e-37,-0.210544,0.0664857,10.1672,-0.509685,-0.563116,4.35425,3.97681,-0.0202637
359,-2.01937e-37,-0.209042,0.0648045,10.1178,-0.451733,-0.470585,2.75098,3.97925,-0.0227051
360,-2.02124e-37,-0.223462,0.061729,10.1052,-0.668045,-0.480651,3.85645,3.97607,-0.0212402
361,-2.02311e-37,-0.213155,0.0520155,10.1488,-0.495879,-0.723794,2.10059,3.9751,-0.0212402
362,-2.02497e-37,-0.23442,0.0589463,10.1128,-0.533327,-0.668519,-1.88623,3.9751,-0.020752
363,-2.02684e-37,-0.23854,0.0737315,10.0858,-0.689279,-0.544328,-5.50903,3.97729,-0.0212402
364,-2.02871e-37,-0.235708,0.0666502,10.1113,-0.77875,-0.596223,-0.711914,3.97949,-0.0212402
365,-2.03058e-37,-0.235193,0.0445622,10.1549,-0.706748,-0.591791,7.97095,3.97876,-0.0183105
366,-2.03245e-37,-0.218104,0.0543401,10.1108,-0.700882,-0.579317,-6.4834,3.98022,-0.0183105
367,-2.03432e-37,-0.21485,0.0546406,10.131,-0.853774,-0.463618,-5.1687,3.97778,-0.0241699
368,-2.03618e-37,-0.223619,0.0605204,10.1772,-0.822166,-0.465283,-6.21338,3.97461,-0.0158691
369,-2.03805e-37,-0.206128,0.0359114,10.1324,-0.900443,-0.688562,5.58496,3.97827,-0.0183105
370,-2.03992e-37,-0.175917,0.0570012,10.2623,-0.488387,-0.604957,-3.66504,3.97144,-0.0178223
371,-2.04179e-37,-0.198613,0.0671223,10.1641,0.0884716,-0.391552,-7.03003,3.97729,-0.0217285
372,-2.04366e-37,-0.227661,0.0735169,10.1356,0.0702086,-0.363735,3.78076,3.97437,-0.0212402
373,-2.04553e-37,-0.248955,0.073109,10.1452,-0.0418409,-0.209819,4.14429,3.97681,-0.0192871
374,-2.04739e-37,-0.232389,0.0423377,10.0655,-0.320946,-0.288032,-7.24194,3.97876,-0.0241699
375,-2.04926e-37,-0.224549,0.019949,10.1308,-0.360648,-0.525758,4.11719,3.97754,-0.020752
376,-2.05113e-37,-0.203219,0.0491259,10.1383,-0.286009,-0.374608,-5.64233,3.979,-0.0227051
377,-2.053e-37,-0.20681,0.0731307,10.1261,-0.381947,-0.402899,-3.30273,3.9751,-0.017334
378,-2.05487e-37,-0.23638,0.0855552,10.1326,-0.422199,-0.40742,7.16577,3.97314,-0.0231934
379,-2.05674e-37,-0.2151,0.0690965,10.1208,-0.460826,-0.301505,4.17432,3.97437,-0.0168457
380,-2.0586e-37,-0.227932,0.0422306,10.1004,-0.573016,-0.425862,-5.9519,3.9751,-0.0163574
381,-2.06047e-37,-0.233762,0.070656,10.1305,-0.534748,-0.43785,0.864502,3.97778,-0.0236816
382,-2.06234e-37,-0.189844,0.0716929,10.1681,-0.305757,-0.457265,1.65112,3.97778,-0.0158691
383,-2.06421e-37,-0.193864,0.0608348,10.1551,-0.391898,-0.382011,-5.50879,3.97729,-0.020752
384,-2.06608e-37,-0.217775,0.0587535,10.1337,-0.322624,-0.434277,-4.40332,3.97437,-0.020752
385,-2.06795e-37,-0.202991,0.0499626,10.135,-0.332217,-0.310035,-1.07495,3.97656,-0.0158691
386,-2.06981e-37,-0.23417,0.0347055,10.1593,-0.463105,-0.298892,-4.37988,3.97656,-0.020752
387,-2.07168e-37,-0.234298,0.0583317,10.1415,-0.346561,-0.573477,-7.94653,3.97607,-0.0144043
388,-2.07355e-37,-0.187412,0.058217,10.146,-0.138266,-0.310752,3.23096,3.97339,-0.020752
389,-2.07542e-37,-0.216588,0.0663214,10.112,-0.286803,-0.538975,-0.0234375,3.97461,-0.0202637
390,-2.07729e-37,-0.217811,0.0604201,10.1193,-0.323994,-0.415847,-0.44165,3.97339,-0.0158691
391,-2.07916e-37,-0.228819,0.0714786,10.1363,-0.266081,-0.476169,1.49634,3.97607,-0.0236816
392,-2.08102e-37,-0.22957,0.0588751,10.1123,-0.256501,-0.467793,3.33423,3.97461,-0.017334
393,-2.08289e-37,-0.217139,0.0609279,10.1341,-0.366642,-0.436287,-6.84399,3.97534,-0.0222168
394,-2.08476e-37,-0.219785,0.0463433,10.1155,-0.409777,-0.510671,-3.38306,3.97656,-0.0163574
395,-2.08663e-37,-0.217554,0.0560854,10.1451,-0.362108,-0.279503,-2.07202,3.97681,-0.020752
396,-2.0885e-37,-0.192612,0.0629164,10.1502,-0.402502,-0.372354,-7.68188,3.97437,-0.0168457
397,-2.09037e-37,-0.241094,0.0496693,10.1346,-0.330334,-0.426003,4.35645,3.9751,-0.0202637
398,-2.09223e-37,-0.24962,0.0717216,10.1445,-0.346714,-0.37781,-7.65649,3.97485,-0.0192871
399,-2.0941e-37,-0.230271,0.0671437,10.1,-0.370331,-0.503832,-1.52075,3.97632,-0.0178223
400,-2.09597e-37,-0.210966,0.0475024,10.1614,-0.293808,-0.371701,-3.82764,3.97534,-0.0202637
401,-2.09784e-37,-0.216452,0.0499841,10.1323,-0.313595,-0.410033,-0.626465,3.97437,-0.0231934
402,-2.09971e-37,-0.179401,0.0470083,10.1277,-0.262136,-0.373327,-6.58398,3.97681,-0.0183105
403,-2.10158e-37,-0.204593,0.040857,10.1429,-0.336494,-0.221999,-0.809326,3.97388,-0.0197754
404,-2.10344e-37,-0.235507,0.0545619,10.1018,-0.277018,-0.340259,-6.37476,3.97754,-0.017334
405,-2.10531e-37,-0.199078,0.0762566,10.1509,-0.26439,-0.297714,-5.58667,3.97656,-0.0217285
406,-2.10718e-37,-0.191947,0.0622941,10.1633,-0.304041,-0.374326,-5.95117,3.97461,-0.0197754
407,-2.10905e-37,-0.210701,0.0642111,10.1199,-0.254977,-0.490064,0,3.97681,-0.0212402
408,-2.11092e-37,-0.222918,0.0669293,10.1075,-0.459468,-0.288724,3.90918,3.97607,-0.0217285
409,-2.11279e-37,-0.214492,0.0452062,10.1215,-0.467076,-0.505395,5.90161,3.97705,-0.017334
410,-2.11465e-37,-0.220729,0.0447985,10.1345,-0.440642,-0.324481,3.25732,3.97314,-0.0217285
411,-2.11652e-37,-0.211009,0.0554989,10.1748,-0.414579,-0.464834,0.314209,3.97754,-0.017334
412,-2.11839e-37,-0.215816,0.0690535,10.135,-0.419805,-0.549515,7.97461,3.97632,-0.0187988
413,-2.12026e-37,-0.209722,0.0545545,10.1657,-0.487413,-0.425581,2.44019,3.97632,-0.0202637
414,-2.12213e-37,-0.234148,0.0530097,10.1224,-0.43461,-0.381895,7.81616,3.97705,-0.0202637
415,-2.12399e-37,-0.239484,0.0317159,10.166,-0.278593,-0.498901,1.36499,3.97607,-0.0202637
416,-2.12586e-37,-0.204214,0.0883018,10.1299,-0.352964,-0.389746,4.82617,3.97681,-0.0144043
417,-2.12773e-37,-0.212769,0.078724,10.1574,-0.30171,-0.448505,-6.05664,3.9751,-0.020752
418,-2.1296e-37,-0.201789,0.0644257,10.1696,-0.310316,-0.319717,6.76514,3.97827,-0.0168457
419,-2.13147e-37,-0.222074,0.046236,10.1294,-0.417166,-0.255771,-2.83154,3.97583,-0.0192871
420,-2.13334e-37,-0.232203,0.0281035,10.1293,-0.360405,-0.354514,-4.87671,3.97534,-0.020752
421,-2.1352e-37,-0.225729,0.0365367,10.1202,-0.367667,-0.432087,4.8313,3.9729,-0.0158691
422,-2.13707e-37,-0.233598,0.0541184,10.163,-0.38251,-0.34601,3.35742,3.97681,-0.0236816
423,-2.13894e-37,-0.210759,0.0574087,10.1626,-0.324622,-0.468139,-2.83325,3.97705,-0.0183105
424,-2.14081e-37,-0.212854,0.0760276,10.1411,-0.291721,-0.333062,4.6167,3.97681,-0.0231934
425,-2.14268e-37,-0.227611,0.0675729,10.1431,-0.301941,-0.397226,7.16455,3.97388,-0.0178223
426,-2.14455e-37,-0.227274,0.0732952,10.1158,-0.403501,-0.272202,-7.5249,3.97461,-0.0134277
427,-2.14641e-37,-0.218169,0.060706,10.1318,-0.211369,-0.448941,5.82495,3.97559,-0.0197754
428,-2.14828e-37,-0.215179,0.050027,10.1792,-0.282179,-0.353797,-7.49829,3.97412,-0.0183105
429,-2.15015e-37,-0.206338,0.0735956,10.1466,-0.35071,-0.341207,3.073,3.97388,-0.0217285
430,-2.15202e-37,-0.215351,0.036222,10.1038,-0.339081,-0.4441,6.74243,3.97583,-0.0158691
431,-2.15389e-37,-0.225822,0.0410718,10.1519,-0.324251,-0.434545,7.58252,3.9751,-0.0187988
432,-2.15576e-37,-0.222239,0.0629735,10.1285,-0.209729,-0.334599,2.38696,3.97681,-0.0212402
433,-2.15762e-37,-0.216595,0.0645473,10.1101,-0.343538,-0.423967,5.03833,3.9751,-0.017334
434,-2.15949e-37,-0.225837,0.0599982,10.1634,-0.387799,-0.454729,-7.05225,3.97412,-0.0212402
435,-2.16136e-37,-0.220279,0.0635246,10.1286,-0.313185,-0.443203,0.395996,3.9751,-0.017334
436,-2.16323e-37,-0.195938,0.0612996,10.1262,-0.295985,-0.36622,3.67651,3.97363,-0.0222168
437,-2.1651e-37,-0.199292,0.0535607,10.1389,-0.272523,-0.352132,-7.34473,3.97729,-0.0202637
438,-2.16697e-37,-0.225994,0.0532601,10.1506,-0.2846,-0.390387,-6.71313,3.97559,-0.0202637
439,-2.16883e-37,-0.225508,0.0509998,10.1524,-0.293962,-0.361558,2.04956,3.97412,-0.0236816
440,-2.1707e-37,-0.201417,0.056758,10.1227,-0.342091,-0.430691,-6.92285,3.97534,-0.017334
441,-2.17257e-37,-0.233619,0.0530097,10.1399,-0.360328,-0.431459,-1.30884,3.97485,-0.0222168
442,-2.17444e-37,-0.206088,0.0609923,10.1578,-0.208295,-0.519021,2.01807,3.97803,-0.0183105
443,-2.17631e-37,-0.233633,0.0657632,10.1165,-0.320229,-0.486875,-6.16064,3.97412,-0.0183105
444,-2.17818e-37,-0.214292,0.0435179,10.121,-0.282948,-0.496314,7.23804,3.97778,-0.0192871
445,-2.18004e-37,-0.207125,0.0418084,10.1575,-0.368909,-0.480305,-5.55811,3.97485,-0.0187988
446,-2.18191e-37,-0.210329,0.0218162,10.1388,-0.30454,-0.45779,-7.44482,3.97363,-0.020752
447,-2.18378e-37,-0.220858,0.0425523,10.1378,-0.392653,-0.336558,-4.71875,3.97485,-0.017334
448,-2.18565e-37,-0.227003,0.0557422,10.1237,-0.279195,-0.262623,-3.49243,3.97974,-0.0234375
449,-2.18752e-37,-0.234649,0.0648979,10.1369,-0.319781,-0.439502,-6.65967,3.97461,-0.0148926
450,-2.18939e-37,-0.228269,0.047688,10.1272,-0.25248,-0.421943,6.32642,3.97314,-0.0231934
451,-2.19125e-37,-0.219535,0.0998394,10.1338,-0.298739,-0.340797,-6.73999,3.97607,-0.0178223
452,-2.19312e-37,-0.224907,0.0664712,10.1497,-0.29523,-0.449018,1.54932,3.97559,-0.0158691
453,-2.19499e-37,-0.230143,0.0649764,10.1388,-0.334868,-0.477795,-7.60767,3.97754,-0.0217285
454,-2.19686e-37,-0.205644,0.0346196,10.1558,-0.216901,-0.462132,-3.51318,3.97559,-0.0197754
455,-2.19873e-37,-0.195916,0.0454637,10.1192,-0.287328,-0.394242,1.67822,3.97729,-0.020752
456,-2.2006e-37,-0.219957,0.0581167,10.1202,-0.353118,-0.348251,3.37964,3.97998,-0.0197754
457,-2.20246e-37,-0.221945,0.0348202,10.1618,-0.400133,-0.408765,2.9917,3.97583,-0.0183105
458,-2.20433e-37,-0.235293,0.0565218,10.1243,-0.385328,-0.272395,6.50317,3.97803,-0.0227051
459,-2.2062e-37,-0.222432,0.0733381,10.1244,-0.358074,-0.312327,6.61035,3.97656,-0.0187988
460,-2.20807e-37,-0.22294,0.0741678,10.1502,-0.262136,-0.443972,4.90625,3.97583,-0.0212402
461,-2.20994e-37,-0.204786,0.0612355,10.1549,-0.325403,-0.479806,7.89966,3.97339,-0.0192871
462,-2.21181e-37,-0.213548,0.057938,10.1533,-0.420458,-0.472198,-4.85229,3.97656,-0.0187988
463,-2.21367e-37,-0.212747,0.0549198,10.1001,-0.365028,-0.270538,7.26782,3.97534,-0.0183105
464,-2.21554e-37,-0.212318,0.048475,10.1183,-0.331986,-0.436518,0.236084,3.97681,-0.0178223
465,-2.21741e-37,-0.212869,0.0716286,10.1354,-0.405204,-0.365605,-3.93237,3.9751,-0.0222168
466,-2.21928e-37,-0.211824,0.0583744,10.1259,-0.427105,-0.507841,-0.418945,3.97607,-0.0187988
467,-2.22115e-37,-0.21535,0.0850977,10.1524,-0.301236,-0.425593,-0.101807,3.97461,-0.0183105
468,-2.22302e-37,-0.217554,0.0739962,10.1486,-0.367282,-0.386365,3.02051,3.97388,-0.0197754
469,-2.22488e-37,-0.214099,0.0620938,10.1537,-0.391693,-0.448685,-5.79614,3.97632,-0.0178223
470,-2.22675e-37,-0.21887,0.0718503,10.1266,-0.392897,-0.461184,-4.16821,3.97485,-0.0266113
471,-2.22862e-37,-0.203484,0.0459284,10.1366,-0.339453,-0.492139,-7.02417,3.97266,-0.0158691
472,-2.23049e-37,-0.197833,0.0253928,10.1121,-0.316566,-0.460211,-0.760254,3.97656,-0.0197754
473,-2.23236e-37,-0.220901,0.051479,10.1648,-0.330885,-0.573323,3.91211,3.97388,-0.0183105
474,-2.23423e-37,-0.2353,0.0529024,10.1415,-0.418831,-0.312916,1.15527,3.97632,-0.0217285
475,-2.23609e-37,-0.217303,0.06959,10.125,-0.381383,-0.374442,-7.91772,3.97412,-0.0183105
476,-2.23796e-37,-0.220758,0.0598768,10.1395,-0.385072,-0.384124,-4.71777,3.97412,-0.0153809
477,-2.23983e-37,-0.233469,0.0751335,10.1421,-0.396982,-0.408765,5.77271,3.97559,-0.020752
478,-2.2417e-37,-0.205966,0.0545333,10.1152,-0.422942,-0.497172,-4.7959,3.97363,-0.0163574
479,-2.24357e-37,-0.225715,0.0545047,10.1653,-0.442332,-0.446892,-4.53296,3.97314,-0.0202637
480,-2.24544e-37,-0.209972,0.0576877,10.1064,-0.418076,-0.380499,-1.49536,3.97681,-0.0212402
481,-2.2473e-37,-0.201846,0.0542756,10.1207,-0.308357,-0.38187,7.08252,3.97656,-0.0187988
482,-2.24917e-37,-0.223119,0.0478168,10.145,-0.24573,-0.266811,-1.41211,3.97339,-0.0222168
483,-2.25104e-37,-0.215472,0.0528237,10.1267,-0.304489,-0.454614,4.87793,3.97754,-0.0168457
484,-2.25291e-37,-0.214099,0.0596473,10.1287,-0.243873,-0.4556,3.01562,3.97754,-0.0212402
485,-2.25478e-37,-0.215479,0.0715714,10.087,-0.414438,-0.545609,3.95752,3.979,-0.0192871
486,-2.25665e-37,-0.228705,0.063846,10.1293,-0.375453,-0.504139,6.63477,3.97778,-0.0197754
487,-2.25851e-37,-0.221402,0.0495835,10.1416,-0.411864,-0.236227,-1.83569,3.97656,-0.0222168
488,-2.26038e-37,-0.219371,0.0529525,10.1252,-0.358932,-0.302555,1.44312,3.97681,-0.0187988
489,-2.26225e-37,-0.209256,0.059061,10.1214,-0.388875,-0.416078,5.80225,3.97266,-0.0212402
490,-2.26412e-37,-0.212518,0.0471942,10.1469,-0.375953,-0.467703,-1.52124,3.97681,-0.0187988
491,-2.26599e-37,-0.211588,0.0563501,10.127,-0.341092,-0.427002,2.25952,3.97412,-0.0202637
492,-2.26786e-37,-0.233139,0.0743327,10.13,-0.39606,-0.408124,-2.25195,3.97388,-0.0178223
493,-2.26972e-37,-0.252917,0.0659921,10.1469,-0.384085,-0.331627,-0.342773,3.97803,-0.0197754
494,-2.27159e-37,-0.231294,0.0563428,10.1424,-0.252275,-0.381319,7.10791,3.97705,-0.0231934
495,-2.27346e-37,-0.205802,0.0464076,10.1433,-0.210216,-0.631621,0.548828,3.97852,-0.0158691
496,-2.27533e-37,-0.198613,0.0651052,10.1711,-0.345818,-0.418383,7.79468,3.97363,-0.0192871
497,-2.2772e-37,-0.202561,0.049605,10.1269,-0.295537,-0.461184,-5.37646,3.97632,-0.0212402
498,-2.27907e-37,-0.199614,0.0525877,10.1306,-0.300455,-0.393947,4.95703,3.97705,-0.0183105
499,-2.28093e-37,-0.203863,0.0481172,10.1636,-0.360136,-0.44205,4.74756,3.97681,-0.0192871
500,-2.2828e-37,-0.221094,0.0568436,10.1534,-0.31795,-0.342155,-0.655518,3.97656,-0.0168457
501,-2.28467e-37,-0.220565,0.0623513,10.1371,-0.323405,-0.361878,-5.27295,3.97729,-0.0222168
502,-2.28654e-37,-0.227325,0.0383893,10.1477,-0.339363,-0.356678,-0.862549,3.97437,-0.0202637
503,-2.28841e-37,-0.213191,0.049848,10.1366,-0.293923,-0.443971,0.706055,3.97827,-0.0197754
504,-2.29028e-37,-0.22236,0.0593042,10.1464,-0.383624,-0.321715,-6.53271,3.97803,-0.0202637
505,-2.29214e-37,-0.237346,0.0490542,10.1502,-0.36239,-0.417282,-1.23267,3.97656,-0.017334
506,-2.29401e-37,-0.216552,0.0525734,10.1369,-0.290004,-0.499964,5.0083,3.97803,-0.0217285
507,-2.29588e-37,-0.203734,0.0358286,10.1581,-0.314159,-0.454499,7.05396,3.97803,-0.0158691
508,-2.29775e-37,-0.220343,0.0619508,10.1172,-0.344243,-0.444112,5.24707,3.97607,-0.0222168
509,-2.29962e-37,-0.215222,0.0480669,10.1222,-0.408381,-0.373853,-0.890625,3.97583,-0.017334
510,-2.30149e-37,-0.225093,0.0579309,10.1119,-0.405678,-0.340695,0.0810547,3.9751,-0.0187988
511,-2.30335e-37,-0.233726,0.0443619,10.1503,-0.269308,-0.445457,-0.443359,3.97485,-0.0202637
512,-2.30522e-37,-0.209836,0.0585532,10.1445,-0.383163,-0.399685,-1.52051,3.97607,-0.0134277
513,-2.30709e-37,-0.212976,0.0624229,10.1301,-0.227237,-0.333485,-6.86768,3.97339,-0.0234375
514,-2.30896e-37,-0.21352,0.0432675,10.1516,-0.224842,-0.502961,6.77051,3.97412,-0.0183105
515,-2.31083e-37,-0.21,0.0434748,10.1222,-0.354181,-0.405691,-7.60498,3.97559,-0.0187988
516,-2.3127e-37,-0.210437,0.0666572,10.1358,-0.336097,-0.26722,3.25342,3.97607,-0.020752
517,-2.31456e-37,-0.20598,0.0531456,10.128,-0.328003,-0.436018,-7.13647,3.97827,-0.017334
518,-2.31643e-37,-0.218991,0.065091,10.1251,-0.301403,-0.253453,0.496338,3.97852,-0.0227051
519,-2.3183e-37,-0.231731,0.0543115,10.1472,-0.331397,-0.368819,-5.47974,3.9751,-0.0187988
520,-2.32017e-37,-0.227282,0.0469085,10.1176,-0.234178,-0.380794,6.81934,3.97705,-0.0222168
521,-2.32204e-37,-0.209922,0.0629879,10.134,-0.358241,-0.454678,0.526123,3.97559,-0.0197754
522,-2.32391e-37,-0.214821,0.059154,10.1414,-0.357062,-0.28355,0.7854,3.97827,-0.0222168
523,-2.32577e-37,-0.208741,0.0639464,10.1304,-0.253504,-0.469842,5.87622,3.97632,-0.0192871
524,-2.32764e-37,-0.224964,0.059676,10.1309,-0.307396,-0.245282,-5.21777,3.97534,-0.013916
525,-2.32951e-37,-0.201918,0.0643897,10.134,-0.247638,-0.345357,5.74512,3.97632,-0.0187988
526,-2.33138e-37,-0.237553,0.0588607,10.113,-0.379334,-0.32977,-2.2041,3.97729,-0.0168457
527,-2.33325e-37,-0.19631,0.0519298,10.139,-0.40564,-0.39396,-4.6687,3.97681,-0.0192871
528,-2.33512e-37,-0.219528,0.0497623,10.1471,-0.377285,-0.540729,4.72363,3.97534,-0.0212402
529,-2.33698e-37,-0.219814,0.0646331,10.1256,-0.290273,-0.353617,0.209473,3.97729,-0.0222168
530,-2.33885e-37,-0.218369,0.0430673,10.1579,-0.377707,-0.352273,-3.40894,3.97607,-0.0231934
531,-2.34072e-37,-0.22392,0.049605,10.1217,-0.419459,-0.478679,0.026123,3.97705,-0.0183105
532,-2.34259e-37,-0.209872,0.0532243,10.1232,-0.315491,-0.310496,-4.16797,3.9751,-0.0217285
533,-2.34446e-37,-0.204535,0.0612502,10.1344,-0.229145,-0.42284,4.98657,3.97485,-0.0183105
534,-2.34633e-37,-0.207082,0.0444907,10.1413,-0.358779,-0.44912,6.01001,3.97412,-0.0187988
535,-2.34819e-37,-0.226452,0.0662496,10.1389,-0.312852,-0.468536,-6.3728,3.97583,-0.0197754
536,-2.35006e-37,-0.218734,0.0673869,10.1241,-0.316566,-0.519559,-5.27197,3.97656,-0.0178223
537,-2.35193e-37,-0.212025,0.0536177,10.1199,-0.314082,-0.501655,-4.85229,3.97656,-0.020752
538,-2.3538e-37,-0.222375,0.0543974,10.1148,-0.505804,-0.473454,-4.01025,3.97461,-0.0144043
539,-2.35567e-37,-0.242059,0.0663569,10.1287,-0.308831,-0.445457,-4.77173,3.9751,-0.0217285
540,-2.35754e-37,-0.202111,0.0488825,10.1416,-0.33821,-0.335495,-2.27905,3.97461,-0.0197754
541,-2.3594e-37,-0.229642,0.0581455,10.1556,-0.365374,-0.205336,-7.81616,3.97656,-0.0212402
542,-2.36127e-37,-0.208462,0.0504919,10.1401,-0.317181,-0.298098,-1.36401,3.97681,-0.0212402
543,-2.36314e-37,-0.204464,0.0681594,10.1387,-0.279836,-0.413465,2.38623,3.97754,-0.017334
544,-2.36501e-37,-0.22196,0.0531029,10.1352,-0.392461,-0.435954,3.06763,3.97778,-0.0212402
545,-2.36688e-37,-0.203928,0.0659776,10.1204,-0.371675,-0.222575,1.31323,3.97559,-0.0197754
546,-2.36875e-37,-0.235049,0.0609997,10.1286,-0.360508,-0.61291,4.40649,3.97705,-0.020752
547,-2.37061e-37,-0.224707,0.042924,10.1315,-0.271562,-0.39679,1.12915,3.97607,-0.0212402
548,-2.37248e-37,-0.233676,0.0542901,10.1413,-0.313249,-0.418396,1.47266,3.97388,-0.0153809
549,-2.37435e-37,-0.226051,0.0598405,10.1669,-0.274623,-0.41942,-0.942627,3.97534,-0.0222168
550,-2.37622e-37,-0.216939,0.0427812,10.1405,-0.318308,-0.467921,0.815674,3.9751,-0.0187988
551,-2.37809e-37,-0.20734,0.0476377,10.1166,-0.445828,-0.418524,-1.20776,3.97754,-0.0183105
552,-2.37996e-37,-0.23613,0.0585889,10.138,-0.301877,-0.443113,0.425049,3.9729,-0.0231934
553,-2.38182e-37,-0.227732,0.0670152,10.1234,-0.346176,-0.461415,3.75391,3.97461,-0.0187988
554,-2.38369e-37,-0.219514,0.0655913,10.1305,-0.493407,-0.540486,3.64575,3.97681,-0.0236816
555,-2.38556e-37,-0.225107,0.0543473,10.1359,-0.351094,-0.350428,0.288818,3.97656,-0.0187988
556,-2.38743e-37,-0.228054,0.0520798,10.147,-0.40094,-0.458059,7.6377,3.97314,-0.0212402
557,-2.3893e-37,-0.20239,0.0534677,10.1187,-0.36061,-0.476207,-2.62671,3.97949,-0.0197754
558,-2.39117e-37,-0.204335,0.0748043,10.1379,-0.304233,-0.220654,1.62427,3.97827,-0.0202637
559,-2.39303e-37,-0.218705,0.0699979,10.151,-0.403847,-0.336994,-2.62451,3.97778,-0.0212402
560,-2.3949e-37,-0.22701,0.0492187,10.1159,-0.283921,-0.478384,-0.681152,3.97583,-0.0148926
561,-2.39677e-37,-0.227296,0.0706558,10.1294,-0.356678,-0.470431,-6.53174,3.97729,-0.020752
562,-2.39864e-37,-0.218312,0.0560638,10.1434,-0.249303,-0.397277,6.24121,3.97778,-0.0187988
563,-2.40051e-37,-0.202947,0.0560857,10.143,-0.345306,-0.465795,-2.49146,3.97656,-0.020752
564,-2.40238e-37,-0.231344,0.0500627,10.1181,-0.228197,-0.408496,-2.49365,3.97827,-0.0187988
565,-2.40424e-37,-0.235193,0.0593829,10.1204,-0.428373,-0.510517,6.74194,3.97607,-0.0178223
566,-2.40611e-37,-0.242689,0.0404636,10.1476,-0.318577,-0.400414,-1.93774,3.97437,-0.0212402
567,-2.40798e-37,-0.217468,0.0507137,10.1361,-0.421777,-0.491806,-1.3645,3.97729,-0.0168457
568,-2.40985e-37,-0.201181,0.0556995,10.1432,-0.294705,-0.427053,6.82495,3.97266,-0.0217285
569,-2.41172e-37,-0.224392,0.0623301,10.1772,-0.371419,-0.25531,6.82153,3.97534,-0.013916
570,-2.41359e-37,-0.228841,0.0448912,10.142,-0.341668,-0.378245,-1.38818,3.9751,-0.0168457
571,-2.41545e-37,-0.228898,0.0594759,10.1333,-0.277172,-0.422123,-4.84888,3.97412,-0.0227051
572,-2.41732e-37,-0.235965,0.043804,10.1166,-0.329886,-0.550424,-4.69482,3.97681,-0.0197754
573,-2.41919e-37,-0.235321,0.0604201,10.1649,-0.33424,-0.459135,6.0083,3.97534,-0.0246582
574,-2.42106e-37,-0.205437,0.0604773,10.1052,-0.376555,-0.339645,-0.33667,3.97363,-0.0144043
575,-2.42293e-37,-0.206824,0.0706704,10.124,-0.290376,-0.608197,-1.94067,3.97656,-0.020752
576,-2.42479e-37,-0.226044,0.0479743,10.1405,-0.362352,-0.381178,-5.77026,3.97656,-0.0217285
577,-2.42666e-37,-0.20558,0.0595547,10.0962,-0.455511,-0.413068,-0.678955,3.97437,-0.0163574
578,-2.42853e-37,-0.217854,0.0628377,10.1353,-0.393153,-0.449299,6.84839,3.97485,-0.0212402
579,-2.4304e-37,-0.226151,0.0651195,10.1339,-0.371022,-0.343717,0.653809,3.97827,-0.0178223
580,-2.43227e-37,-0.231001,0.0486109,10.1335,-0.365361,-0.346612,5.53442,3.97681,-0.0202637
581,-2.43414e-37,-0.21093,0.0834667,10.1139,-0.33839,-0.307217,7.44873,3.97729,-0.0197754
582,-2.436e-37,-0.225586,0.0710137,10.1378,-0.41294,-0.479153,-7.08301,3.97754,-0.0202637
583,-2.43787e-37,-0.220908,0.061307,10.1209,-0.327363,-0.333689,5.93262,3.97314,-0.0197754
584,-2.43974e-37,-0.221108,0.0619798,10.1485,-0.24792,-0.484288,-6.05493,3.97363,-0.0178223
585,-2.44161e-37,-0.232632,0.0785599,10.1183,-0.443049,-0.510133,-6.42163,3.97363,-0.0231934
586,-2.44348e-37,-0.222883,0.0586032,10.1174,-0.447506,-0.342052,3.75171,3.97632,-0.017334
587,-2.44535e-37,-0.222861,0.0854262,10.1257,-0.361903,-0.317488,4.7207,3.97729,-0.0187988
588,-2.44721e-37,-0.223633,0.0475595,10.1483,-0.339901,-0.532827,7.4248,3.97534,-0.0183105
589,-2.44908e-37,-0.223541,0.0578164,10.0992,-0.525809,-0.45286,-0.571777,3.9729,-0.0153809
590,-2.45095e-37,-0.223991,0.0751335,10.1164,-0.221461,-0.409623,1.86377,3.97583,-0.0222168
591,-2.45282e-37,-0.201345,0.0768001,10.1579,-0.282205,-0.578049,-2.72437,3.97412,-0.017334
592,-2.45469e-37,-0.208269,0.0567151,10.1044,-0.393255,-0.470175,6.53491,3.97388,-0.0227051
593,-2.45656e-37,-0.211445,0.0592397,10.1394,-0.222818,-0.340259,-3.64795,3.97827,-0.0153809
594,-2.45842e-37,-0.233712,0.0621866,10.1128,-0.318795,-0.561643,7.55688,3.97485,-0.0197754
595,-2.46029e-37,-0.2407,0.065527,10.1389,-0.387262,-0.504395,5.90283,3.97607,-0.0222168
596,-2.46216e-37,-0.219084,0.0555704,10.1324,-0.385238,-0.449299,-7.68579,3.97729,-0.0158691
597,-2.46403e-37,-0.218469,0.057094,10.1252,-0.314543,-0.457291,0.0844727,3.97266,-0.0222168
598,-2.4659e-37,-0.220565,0.0376955,10.154,-0.348712,-0.328733,4.35596,3.97534,-0.0178223
599,-2.46777e-37,-0.203162,0.0820717,10.1329,-0.249816,-0.405986,-6.89551,3.97461,-0.0256348
600,-2.46963e-37,-0.210716,0.0567864,10.1342,-0.408342,-0.380269,-4.40601,3.97632,-0.0178223
601,-2.4715e-37,-0.220672,0.0751192,10.0949,-0.426144,-0.200636,-5.5874,3.97705,-0.0178223
602,-2.47337e-37,-0.232431,0.0672298,10.1372,-0.385955,-0.426042,7.52783,3.97681,-0.0212402
603,-2.47524e-37,-0.217353,0.067251,10.1276,-0.369498,-0.336994,1.68188,3.97437,-0.0168457
604,-2.47711e-37,-0.216767,0.0566003,10.1584,-0.304937,-0.392999,4.72046,3.97754,-0.0212402
605,-2.47898e-37,-0.211617,0.0609563,10.1676,-0.335073,-0.271191,6.82397,3.97363,-0.0217285
606,-2.48084e-37,-0.202898,0.0683168,10.1218,-0.376107,-0.404205,4.77661,3.97485,-0.0168457
607,-2.48271e-37,-0.22093,0.0516364,10.1146,-0.315644,-0.349788,-2.72876,3.97754,-0.0197754
608,-2.48458e-37,-0.212683,0.0685673,10.1222,-0.340874,-0.357933,2.69727,3.98022,-0.0153809
609,-2.48645e-37,-0.229585,0.0588536,10.1262,-0.324443,-0.430511,-7.34302,3.97583,-0.020752
610,-2.48832e-37,-0.214378,0.0633098,10.1552,-0.383522,-0.381908,3.0686,3.97705,-0.0168457
611,-2.49019e-37,-0.220186,0.0562287,10.1516,-0.416078,-0.439335,-0.0791016,3.97705,-0.017334
612,-2.49205e-37,-0.213341,0.0623943,10.1498,-0.400325,-0.387467,-6.53101,3.97681,-0.0192871
613,-2.49392e-37,-0.215351,0.046229,10.1273,-0.228479,-0.431574,-6.95117,3.97705,-0.0183105
614,-2.49579e-37,-0.218691,0.057194,10.1352,-0.319486,-0.303785,-0.106445,3.97778,-0.020752
615,-2.49766e-37,-0.225179,0.0592542,10.1392,-0.216607,-0.418857,-5.19336,3.97656,-0.0168457
616,-2.49953e-37,-0.226752,0.072115,10.1398,-0.408355,-0.456817,2.72998,3.97534,-0.0183105
617,-2.5014e-37,-0.225186,0.0536463,10.119,-0.448736,-0.425529,1.86304,3.97632,-0.0187988
618,-2.50326e-37,-0.204371,0.059161,10.146,-0.406447,-0.344127,6.32178,3.97632,-0.0197754
619,-2.50513e-37,-0.211173,0.0634888,10.1336,-0.438413,-0.424863,3.90796,3.97705,-0.0183105
620,-2.507e-37,-0.204793,0.0660422,10.1298,-0.35176,-0.396816,4.38477,3.97388,-0.0197754
621,-2.50887e-37,-0.199872,0.0478883,10.1493,-0.409508,-0.45382,-4.77222,3.97583,-0.0212402
622,-2.51074e-37,-0.205945,0.0637533,10.1189,-0.269282,-0.377349,5.66406,3.97803,-0.0178223
623,-2.51261e-37,-0.217926,0.060606,10.1358,-0.309458,-0.327465,-7.604,3.97485,-0.0197754
624,-2.51447e-37,-0.215608,0.0705343,10.1526,-0.354603,-0.337672,1.1272,3.97729,-0.0197754
625,-2.51634e-37,-0.211588,0.0592184,10.1319,-0.281654,-0.454217,5.53613,3.97559,-0.0192871
626,-2.51821e-37,-0.216023,0.0736955,10.1473,-0.357383,-0.486094,4.09326,3.97559,-0.020752
627,-2.52008e-37,-0.228419,0.0438255,10.1321,-0.397802,-0.409354,-4.61719,3.97754,-0.0187988
628,-2.52195e-37,-0.223169,0.0645902,10.1419,-0.345344,-0.375876,5.50781,3.97705,-0.0197754
629,-2.52382e-37,-0.209872,0.0646903,10.1359,-0.390976,-0.347355,0.628418,3.97778,-0.0183105
630,-2.52568e-37,-0.234685,0.0628806,10.1515,-0.315593,-0.378066,7.00586,3.97485,-0.0187988
631,-2.52755e-37,-0.228369,0.0676228,10.1423,-0.315132,-0.428859,-1.65332,3.97754,-0.020752
632,-2.52942e-37,-0.220458,0.0598478,10.1143,-0.431164,-0.347688,-1.86157,3.97632,-0.0178223
633,-2.53129e-37,-0.214607,0.065284,10.1382,-0.404974,-0.321548,5.8269,3.97388,-0.0219727
634,-2.53316e-37,-0.21196,0.0495692,10.1431,-0.360776,-0.327299,-5.61328,3.97681,-0.0187988
635,-2.53503e-37,-0.234792,0.059562,10.1296,-0.428296,-0.582647,-0.654785,3.97607,-0.0187988
636,-2.53689e-37,-0.222818,0.0721581,10.1389,-0.383586,-0.481279,-4.71948,3.97534,-0.0202637
637,-2.53876e-37,-0.218956,0.0676444,10.1368,-0.341258,-0.48521,-4.03687,3.9751,-0.0178223
638,-2.54063e-37,-0.227468,0.049698,10.1402,-0.356793,-0.415501,-0.155518,3.97534,-0.0229492
639,-2.5425e-37,-0.205501,0.0617863,10.1308,-0.283486,-0.484071,5.82837,3.9729,-0.017334
640,-2.54437e-37,-0.213684,0.0582245,10.1475,-0.314812,-0.461095,-0.729736,3.97314,-0.020752
641,-2.54624e-37,-0.198255,0.0428598,10.0988,-0.434008,-0.541382,1.91504,3.97656,-0.0168457
642,-2.5481e-37,-0.228462,0.0610281,10.1446,-0.322381,-0.520456,-1.64917,3.97437,-0.0202637
643,-2.54997e-37,-0.199614,0.0708203,10.1256,-0.307832,-0.604803,0.0561523,3.97412,-0.020752
644,-2.55184e-37,-0.224263,0.0315655,10.1068,-0.313326,-0.289915,-0.785156,3.97534,-0.0202637
645,-2.55371e-37,-0.210079,0.0766427,10.1337,-0.427233,-0.510633,-3.09448,3.97656,-0.0212402
646,-2.55558e-37,-0.20784,0.0428315,10.1288,-0.379065,-0.606648,-4.1167,3.97583,-0.0197754
647,-2.55745e-37,-0.208427,0.0629305,10.1241,-0.352913,-0.473761,1.12842,3.97656,-0.020752
648,-2.55931e-37,-0.225865,0.0649977,10.1689,-0.372213,-0.43128,7.6604,3.97583,-0.0197754
649,-2.56118e-37,-0.210608,0.0541544,10.1496,-0.315375,-0.414887,-3.30347,3.97583,-0.0202637
650,-2.56305e-37,-0.23535,0.0586464,10.1471,-0.267387,-0.674807,-2.38354,3.97437,-0.0187988
651,-2.56492e-37,-0.234678,0.0606418,10.1326,-0.402041,-0.505958,-1.12451,3.97437,-0.0231934
652,-2.56679e-37,-0.231087,0.0503131,10.1394,-0.268079,-0.565716,3.88257,3.97632,-0.0241699
653,-2.56866e-37,-0.21701,0.060606,10.1614,-0.271985,-0.425081,-5.45679,3.97778,-0.0168457
654,-2.57052e-37,-0.226974,0.0673083,10.1529,-0.279733,-0.49666,0.759521,3.97754,-0.0168457
655,-2.57239e-37,-0.216237,0.0462862,10.1848,-0.37448,-0.425324,3.25586,3.97437,-0.0231934
656,-2.57426e-37,-0.214299,0.0561782,10.1429,-0.398032,-0.522441,0.47168,3.97729,-0.0144043
657,-2.57613e-37,-0.225529,0.0539465,10.125,-0.266721,-0.507777,5.63745,3.97827,-0.020752
658,-2.578e-37,-0.219249,0.0716139,10.1181,-0.310419,-0.376862,7.32056,3.97485,-0.0183105
659,-2.57987e-37,-0.216409,0.06243,10.1526,-0.33903,-0.318334,7.97485,3.97607,-0.017334
660,-2.58173e-37,-0.216245,0.0410075,10.117,-0.357434,-0.463502,1.10254,3.97632,-0.0192871
661,-2.5836e-37,-0.214278,0.0600551,10.136,-0.319077,-0.372226,-6.53027,3.97632,-0.0192871
662,-2.58547e-37,-0.220536,0.0641253,10.1365,-0.357728,-0.204325,-0.869629,3.97974,-0.0217285
663,-2.58734e-37,-0.201832,0.0799971,10.1327,-0.377041,-0.568764,5.63696,3.97852,-0.0168457
664,-2.58921e-37,-0.229792,0.0619291,10.1552,-0.418613,-0.361186,2.96143,3.979,-0.0222168
665,-2.59108e-37,-0.231752,0.0516078,10.1238,-0.332127,-0.334945,-7.02808,3.97559,-0.0178223
666,-2.59294e-37,-0.219564,0.0531458,10.1326,-0.281757,-0.405371,4.98145,3.97876,-0.0178223
667,-2.59481e-37,-0.236681,0.0712564,10.1413,-0.378783,-0.428859,3.17212,3.97827,-0.0187988
668,-2.59668e-37,-0.224428,0.0581168,10.1459,-0.403757,-0.437594,-0.182373,3.97583,-0.0163574
669,-2.59855e-37,-0.189565,0.0638536,10.1082,-0.280104,-0.398878,7.97534,3.97559,-0.0212402
670,-2.60042e-37,-0.218512,0.0780876,10.1099,-0.396854,-0.410686,4.14819,3.97412,-0.0148926
671,-2.60229e-37,-0.224449,0.0548913,10.1496,-0.373417,-0.400389,-4.0354,3.97363,-0.0217285
672,-2.60415e-37,-0.229234,0.0671723,10.1173,-0.347585,-0.55711,0.133789,3.9751,-0.0222168
673,-2.60602e-37,-0.209407,0.0530383,10.1253,-0.388158,-0.378425,-0.967041,3.97412,-0.0178223
674,-2.60789e-37,-0.230615,0.0449699,10.1552,-0.294295,-0.253466,7.13623,3.97559,-0.0236816
675,-2.60976e-37,-0.226817,0.0651624,10.1338,-0.436659,-0.482534,-4.56519,3.97754,-0.0153809
676,-2.61163e-37,-0.225429,0.042595,10.1257,-0.290004,-0.384111,-3.67188,3.97656,-0.0217285
677,-2.6135e-37,-0.212075,0.0405924,10.1269,-0.413311,-0.437568,0.580811,3.97412,-0.0192871
678,-2.61536e-37,-0.214285,0.0498909,10.1183,-0.307922,-0.402489,-5.24512,3.97607,-0.0197754
679,-2.61723e-37,-0.230465,0.0610063,10.1671,-0.302171,-0.57673,-6.90088,3.97852,-0.020752
680,-2.6191e-37,-0.21814,0.0663784,10.1173,-0.290875,-0.53188,7.00391,3.97656,-0.0153809
681,-2.62097e-37,-0.219392,0.0664141,10.112,-0.331756,-0.351094,3.64819,3.9751,-0.020752
682,-2.62284e-37,-0.207833,0.043661,10.1309,-0.347175,-0.497915,4.6416,3.97778,-0.0153809
683,-2.62471e-37,-0.187383,0.0262652,10.1221,-0.414272,-0.368217,5.04028,3.97363,-0.0187988
684,-2.62657e-37,-0.231301,0.0471372,10.143,-0.339389,-0.475323,7.73682,3.97754,-0.0192871
685,-2.62844e-37,-0.215551,0.0606776,10.11,-0.334138,-0.49374,1.13062,3.97485,-0.020752
686,-2.63031e-37,-0.209121,0.067952,10.1339,-0.339798,-0.37553,4.96289,3.97266,-0.0236816
687,-2.63218e-37,-0.214399,0.0751549,10.1473,-0.292899,-0.421277,-1.38867,3.97559,-0.017334
688,-2.63405e-37,-0.208233,0.0633102,10.1375,-0.300942,-0.40181,-5.21606,3.97412,-0.020752
689,-2.63592e-37,-0.200988,0.0524446,10.1497,-0.240569,-0.356064,-1.23242,3.97656,-0.0163574
690,-2.63778e-37,-0.211567,0.0409572,10.1387,-0.318116,-0.562655,-2.04443,3.97559,-0.0197754
691,-2.63965e-37,-0.197018,0.0608922,10.1408,-0.397866,-0.447993,1.49927,3.97363,-0.0202637
692,-2.64152e-37,-0.227675,0.0605417,10.1421,-0.376606,-0.459494,-1.70483,3.97681,-0.020752
693,-2.64339e-37,-0.226209,0.0440188,10.1213,-0.3748,-0.370292,4.03662,3.97876,-0.0202637
694,-2.64526e-37,-0.228262,0.0826795,10.1192,-0.38689,-0.470649,-3.30566,3.97729,-0.0217285
695,-2.64713e-37,-0.203706,0.0601196,10.1358,-0.316336,-0.552345,0.707275,3.97754,-0.0217285
696,-2.64899e-37,-0.213849,0.0590968,10.1399,-0.310842,-0.483302,7.34424,3.97681,-0.0217285
697,-2.65086e-37,-0.209042,0.0491257,10.1339,-0.387082,-0.53544,5.40503,3.97583,-0.0178223
698,-2.65273e-37,-0.188427,0.0569223,10.1407,-0.32612,-0.408137,-6.84521,3.97632,-0.0222168
699,-2.6546e-37,-0.238483,0.0627161,10.1467,-0.431523,-0.434699,-3.76978,3.97119,-0.0192871
700,-2.65647e-37,-0.225465,0.0440184,10.1437,-0.300826,-0.356128,-6.08594,3.97729,-0.0236816
701,-2.65834e-37,-0.216402,0.0389186,10.1413,-0.424364,-0.41609,-0.207764,3.9751,-0.0187988
702,-2.6602e-37,-0.210844,0.0468154,10.1451,-0.362262,-0.212675,-7.21436,3.97754,-0.0178223
703,-2.66207e-37,-0.226974,0.0525806,10.1314,-0.34528,-0.590357,-5.896,3.97241,-0.0178223
704,-2.66394e-37,-0.222418,0.0663998,10.1318,-0.326261,-0.336328,5.30176,3.97437,-0.0178223
705,-2.66581e-37,-0.228426,0.0426812,10.1349,-0.371432,-0.414464,3.38208,3.97803,-0.0222168
706,-2.66768e-37,-0.221144,0.0653055,10.1355,-0.485825,-0.512643,-0.395508,3.97827,-0.0158691
707,-2.66955e-37,-0.218033,0.0235688,10.1393,-0.378745,-0.474696,3.93335,3.97778,-0.0192871
708,-2.67141e-37,-0.204772,0.0593614,10.1109,-0.37092,-0.351914,1.4939,3.97778,-0.0197754
709,-2.67328e-37,-0.215408,0.0528384,10.1662,-0.490692,-0.372585,-0.362061,3.97266,-0.0178223
710,-2.67515e-37,-0.209414,0.0443263,10.1051,-0.282435,-0.350748,2.77979,3.97729,-0.020752
711,-2.67702e-37,-0.225722,0.0363005,10.122,-0.437401,-0.452078,-3.46191,3.97632,-0.017334
712,-2.67889e-37,-0.219528,0.0497478,10.1224,-0.273726,-0.374672,6.50366,3.97778,-0.0231934
713,-2.68076e-37,-0.227882,0.0718503,10.1475,-0.267285,-0.424633,-5.50269,3.97266,-0.0192871
714,-2.68262e-37,-0.215529,0.0519225,10.1353,-0.525502,-0.443177,4.27588,3.97656,-0.0183105
715,-2.68449e-37,-0.214814,0.0613498,10.1082,-0.295972,-0.439156,6.8479,3.97534,-0.0217285
716,-2.68636e-37,-0.223634,0.0563859,10.1157,-0.285957,-0.455677,-4.38086,3.97705,-0.0163574
717,-2.68823e-37,-0.217518,0.0425165,10.1113,-0.330859,-0.397482,-6.82129,3.97803,-0.0202637
718,-2.6901e-37,-0.205322,0.0440758,10.1164,-0.34592,-0.615869,-2.75366,3.97656,-0.017334
719,-2.69197e-37,-0.225737,0.0587606,10.1326,-0.415796,-0.388645,3.25098,3.97803,-0.0222168
720,-2.69383e-37,-0.231795,0.0605774,10.1422,-0.436812,-0.368371,6.71509,3.97656,-0.0183105
721,-2.6957e-37,-0.212346,0.0584173,10.1157,-0.409495,-0.296101,-4.1665,3.97363,-0.0163574
722,-2.69757e-37,-0.193863,0.0515076,10.1238,-0.368077,-0.504882,2.6521,3.97485,-0.0202637
723,-2.69944e-37,-0.216524,0.0308645,10.1534,-0.302863,-0.34528,-7.57886,3.97559,-0.0168457
724,-2.70131e-37,-0.207382,0.0297272,10.142,-0.227711,-0.283422,-4.27148,3.97388,-0.0241699
725,-2.70318e-37,-0.210322,0.0593185,10.1452,-0.437363,-0.436467,-6.68628,3.9751,-0.0183105
726,-2.70504e-37,-0.230887,0.043618,10.129,-0.334496,-0.34277,4.12061,3.97485,-0.0178223
727,-2.70691e-37,-0.236409,0.065956,10.1338,-0.301403,-0.41764,-0.230713,3.97266,-0.0227051
728,-2.70878e-37,-0.213105,0.0531027,10.1397,-0.320024,-0.306423,-1.86084,3.97559,-0.0168457
729,-2.71065e-37,-0.238304,0.0413935,10.1367,-0.34277,-0.276916,6.27075,3.97559,-0.0197754
730,-2.71252e-37,-0.231845,0.0585891,10.1372,-0.395868,-0.418588,-0.209473,3.97632,-0.0192871
731,-2.71439e-37,-0.216123,0.0724869,10.1426,-0.328157,-0.421649,6.55396,3.97949,-0.0217285
732,-2.71625e-37,-0.210122,0.0560211,10.1051,-0.403283,-0.380512,3.41357,3.97412,-0.0192871
733,-2.71812e-37,-0.21686,0.0549407,10.1476,-0.275033,-0.565524,-5.45337,3.9751,-0.0187988
734,-2.71999e-37,-0.209142,0.0560352,10.1327,-0.312558,-0.374467,-4.82837,3.97852,-0.0222168
735,-2.72186e-37,-0.196238,0.039405,10.126,-0.378207,-0.380615,-1.1543,3.97681,-0.0178223
736,-2.72373e-37,-0.234313,0.0639822,10.1379,-0.246153,-0.475016,3.33081,3.97729,-0.0217285
737,-2.7256e-37,-0.227024,0.0484748,10.1241,-0.229849,-0.516677,-4.77319,3.97632,-0.0168457
738,-2.72746e-37,-0.229034,0.0668078,10.1306,-0.351312,-0.476642,-1.78149,3.9751,-0.0178223
739,-2.72933e-37,-0.22545,0.0373378,10.1549,-0.415104,-0.310547,-3.22241,3.97388,-0.0192871
740,-2.7312e-37,-0.210687,0.0560997,10.1295,-0.426759,-0.390566,5.11816,3.97437,-0.0178223
741,-2.73307e-37,-0.226066,0.048589,10.1244,-0.412466,-0.490999,-2.1792,3.97827,-0.0187988
742,-2.73494e-37,-0.212303,0.052688,10.1515,-0.301159,-0.364503,5.29443,3.97974,-0.0187988
743,-2.7368e-37,-0.207819,0.0489184,10.1274,-0.371291,-0.341092,3.6731,3.97607,-0.0212402
744,-2.73867e-37,-0.216853,0.0480456,10.1223,-0.40254,-0.539628,-1.8877,3.97607,-0.0197754
745,-2.74054e-37,-0.212411,0.0490397,10.1167,-0.421649,-0.452642,7.50293,3.97583,-0.0178223
746,-2.74241e-37,-0.220873,0.052323,10.1466,-0.402643,-0.201213,2.36108,3.97656,-0.020752
747,-2.74428e-37,-0.229756,0.0741678,10.1241,-0.301403,-0.391181,1.8645,3.9751,-0.0163574
748,-2.74615e-37,-0.221423,0.0466151,10.13,-0.32028,-0.445457,-4.42969,3.97437,-0.0236816
749,-2.74801e-37,-0.195165,0.040485,10.1397,-0.248151,-0.256296,1.39014,3.97705,-0.0197754
750,-2.74988e-37,-0.219757,0.0581027,10.147,-0.355769,-0.431049,7.08301,3.97632,-0.0187988
751,-2.75175e-37,-0.231344,0.0563,10.1273,-0.461479,-0.444266,-6.92139,3.97461,-0.0212402
752,-2.75362e-37,-0.222282,0.0489186,10.1286,-0.32475,-0.401721,0.214355,3.97339,-0.0187988
753,-2.75549e-37,-0.223248,0.0613498,10.1365,-0.351325,-0.309317,-6.73975,3.97559,-0.0217285
754,-2.75736e-37,-0.210358,0.0444835,10.1335,-0.449427,-0.479473,4.70166,3.97192,-0.0183105
755,-2.75922e-37,-0.22098,0.0694684,10.1332,-0.430076,-0.607019,4.40698,3.97656,-0.0217285
756,-2.76109e-37,-0.226466,0.0685025,10.117,-0.363453,-0.355513,1.41968,3.97461,-0.017334
757,-2.76296e-37,-0.227668,0.0681736,10.1189,-0.407049,-0.400696,4.14648,3.97534,-0.0192871
758,-2.76483e-37,-0.211989,0.0547908,10.1599,-0.352529,-0.507162,-4.48511,3.97656,-0.0187988
759,-2.7667e-37,-0.205222,0.0463006,10.1539,-0.332652,-0.616253,4.4314,3.97803,-0.0187988
760,-2.76857e-37,-0.213984,0.0605631,10.1421,-0.359419,-0.373891,-0.367676,3.97705,-0.020752
761,-2.77043e-37,-0.210616,0.0562712,10.1345,-0.365669,-0.444612,3.85767,3.97534,-0.020752
762,-2.7723e-37,-0.23035,0.0522444,10.1059,-0.432522,-0.328964,-0.969971,3.97632,-0.0178223
763,-2.77417e-37,-0.217439,0.0548122,10.1238,-0.311751,-0.359931,-2.8313,3.97583,-0.0178223
764,-2.77604e-37,-0.228834,0.0595329,10.1301,-0.352644,-0.44004,2.57007,3.97705,-0.017334
765,-2.77791e-37,-0.205601,0.0614215,10.1311,-0.335982,-0.44515,3.28027,3.97559,-0.020752
766,-2.77978e-37,-0.203663,0.0720649,10.126,-0.210984,-0.447096,2.28052,3.97803,-0.0192871
767,-2.78164e-37,-0.227561,0.0590324,10.1137,-0.225828,-0.347444,7.97559,3.97534,-0.0202637
768,-2.78351e-37,-0.22897,0.0529239,10.1282,-0.323508,-0.367564,5.06274,3.97632,-0.020752
769,-2.78538e-37,-0.220801,0.066085,10.1322,-0.258909,-0.307345,0.234863,3.97803,-0.0178223
770,-2.78725e-37,-0.227425,0.0598764,10.1176,-0.49009,-0.342117,-4.35522,3.97754,-0.0227051
771,-2.78912e-37,-0.208849,0.0531385,10.1624,-0.379436,-0.3477,-7.28857,3.97437,-0.0158691
772,-2.79099e-37,-0.237839,0.061307,10.1402,-0.321023,-0.296126,-4.69556,3.97729,-0.0217285
773,-2.79285e-37,-0.235257,0.0576877,10.118,-0.296229,-0.28962,2.07495,3.97485,-0.0222168
774,-2.79472e-37,-0.230135,0.0531601,10.1121,-0.319896,-0.47435,-1.12622,3.97559,-0.0168457
775,-2.79659e-37,-0.229141,0.0508996,10.1597,-0.426554,-0.487618,1.80908,3.97729,-0.0222168
776,-2.79846e-37,-0.210894,0.0395981,10.1328,-0.286226,-0.453154,4.93384,3.97485,-0.0192871
777,-2.80033e-37,-0.21048,0.037402,10.1328,-0.408304,-0.441449,7.13354,3.97754,-0.0205078
778,-2.8022e-37,-0.207769,0.0539324,10.1628,-0.314581,-0.388734,5.66821,3.97485,-0.0163574
779,-2.80406e-37,-0.210716,0.0533817,10.1299,-0.317616,-0.370664,-6.16528,3.97778,-0.0217285
780,-2.80593e-37,-0.212811,0.0375167,10.1569,-0.276352,-0.326684,-2.75,3.97388,-0.0187988
781,-2.8078e-37,-0.213233,0.0612999,10.1085,-0.33173,-0.498018,-5.63745,3.97534,-0.017334
782,-2.80967e-37,-0.209607,0.0486753,10.1262,-0.391667,-0.36362,-5.427,3.97485,-0.0227051
783,-2.81154e-37,-0.221616,0.0539398,10.1178,-0.37074,-0.506265,6.00952,3.97461,-0.0183105
784,-2.81341e-37,-0.208112,0.0515723,10.119,-0.305847,-0.633863,-4.87842,3.97656,-0.020752
785,-2.81527e-37,-0.213005,0.0399196,10.1445,-0.296651,-0.467934,3.36206,3.97339,-0.0202637
786,-2.81714e-37,-0.224034,0.0610495,10.1093,-0.350556,-0.511696,-0.890381,3.97559,-0.0192871
787,-2.81901e-37,-0.226466,0.0632597,10.1481,-0.293859,-0.421469,6.87476,3.97485,-0.0222168
788,-2.82088e-37,-0.214771,0.0543902,10.1344,-0.405794,-0.336353,-7.65967,3.97754,-0.0183105
789,-2.82275e-37,-0.24741,0.0501913,10.1119,-0.362313,-0.478628,-2.30786,3.97656,-0.0236816
790,-2.82462e-37,-0.218269,0.0507993,10.1217,-0.506009,-0.348354,-6.55737,3.97656,-0.0168457
791,-2.82648e-37,-0.225944,0.0655558,10.1356,-0.420061,-0.41732,-1.88916,3.97705,-0.0183105
792,-2.82835e-37,-0.22985,0.0539751,10.15,-0.346599,-0.471981,5.61279,3.97729,-0.0202637
793,-2.83022e-37,-0.227181,0.063446,10.1247,-0.275981,-0.348443,0.685303,3.97437,-0.0153809
794,-2.83209e-37,-0.227711,0.0537751,10.1299,-0.345702,-0.420086,2.78198,3.97583,-0.0222168
795,-2.83396e-37,-0.221202,0.0671294,10.1339,-0.364811,-0.479486,-2.09692,3.97559,-0.0168457
796,-2.83583e-37,-0.224664,0.0505778,10.1334,-0.305309,-0.373187,5.40894,3.97266,-0.0192871
797,-2.83769e-37,-0.20322,0.0546333,10.1308,-0.359726,-0.288263,1.54419,3.97949,-0.0158691
798,-2.83956e-37,-0.215758,0.0568079,10.1591,-0.320447,-0.454384,-3.20117,3.97754,-0.0197754
799,-2.84143e-37,-0.219735,0.0553201,10.1079,-0.427028,-0.542369,7.66064,3.97559,-0.0192871
800,-2.8433e-37,-0.210616,0.0593756,10.1481,-0.407113,-0.384572,1.62769,3.97607,-0.0183105
801,-2.84517e-37,-0.209586,0.0557562,10.1296,-0.281987,-0.385545,2.85986,3.97632,-0.0227051
802,-2.84704e-37,-0.209128,0.0513431,10.1386,-0.388875,-0.466,4.85449,3.97534,-0.0202637
803,-2.8489e-37,-0.197797,0.0447841,10.1104,-0.519354,-0.281603,5.80005,3.97437,-0.0212402
804,-2.85077e-37,-0.217218,0.02766,10.1307,-0.387569,-0.434008,2.04956,3.97412,-0.0187988
805,-2.85264e-37,-0.219678,0.0702339,10.1292,-0.443779,-0.289172,-2.41064,3.97485,-0.0192871
806,-2.85451e-37,-0.228927,0.0653416,10.1331,-0.300109,-0.416551,0.844727,3.9729,-0.0241699
807,-2.85638e-37,-0.206352,0.0641682,10.1651,-0.254823,-0.397853,4.51514,3.97437,-0.013916
808,-2.85825e-37,-0.21319,0.0494765,10.1336,-0.262328,-0.376849,2.46997,3.97339,-0.0251465
809,-2.86011e-37,-0.232382,0.0450987,10.1215,-0.39437,-0.42252,5.45874,3.97485,-0.0178223
810,-2.86198e-37,-0.208534,0.028454,10.1142,-0.281923,-0.367731,-0.422363,3.97876,-0.017334
811,-2.86385e-37,-0.200494,0.0485967,10.1295,-0.327183,-0.557148,2.15381,3.97461,-0.0217285
812,-2.86572e-37,-0.210036,0.0451128,10.1519,-0.412274,-0.47946,5.55884,3.97827,-0.0178223
813,-2.86759e-37,-0.223197,0.0408211,10.1102,-0.323982,-0.411685,1.62793,3.97559,-0.0236816
814,-2.86946e-37,-0.213748,0.0705199,10.1589,-0.302338,-0.458251,-6.6062,3.97388,-0.020752
815,-2.87132e-37,-0.222704,0.0850328,10.1453,-0.300301,-0.219104,7.11035,3.9751,-0.0192871
816,-2.87319e-37,-0.219042,0.0495188,10.1307,-0.318808,-0.348699,-6.81592,3.97412,-0.0187988
817,-2.87506e-37,-0.212018,0.0534601,10.1361,-0.23907,-0.316758,0.685547,3.97437,-0.020752
818,-2.87693e-37,-0.218483,0.0450559,10.1324,-0.341489,-0.423378,1.12988,3.97534,-0.0236816
819,-2.8788e-37,-0.210837,0.0635459,10.1422,-0.311853,-0.386621,3.8042,3.97607,-0.0202637
820,-2.88067e-37,-0.219185,0.0684885,10.1337,-0.320805,-0.340913,2.99268,3.9751,-0.0192871
821,-2.88253e-37,-0.221967,0.0531671,10.1478,-0.387262,-0.382677,1.20825,3.97607,-0.0153809
822,-2.8844e-37,-0.200709,0.0530743,10.1524,-0.391526,-0.5197,-0.420166,3.97705,-0.0168457
823,-2.88627e-37,-0.233791,0.0675014,10.1363,-0.36727,-0.470341,3.10107,3.97217,-0.0183105
824,-2.88814e-37,-0.233555,0.0497337,10.1062,-0.263417,-0.427322,-2.04028,3.97241,-0.0158691
825,-2.89001e-37,-0.22118,0.0385824,10.1474,-0.356448,-0.398762,-0.996826,3.97681,-0.0227051
826,-2.89188e-37,-0.215608,0.0356496,10.1434,-0.372098,-0.321945,-0.236084,3.97681,-0.0187988
827,-2.89374e-37,-0.224649,0.05208,10.1263,-0.521403,-0.353143,0.289307,3.97632,-0.020752
828,-2.89561e-37,-0.228948,0.0729302,10.1147,-0.302658,-0.388363,-1.60107,3.97729,-0.0183105
829,-2.89748e-37,-0.224177,0.0583674,10.1285,-0.359918,-0.386122,-7.81494,3.97559,-0.0202637
830,-2.89935e-37,-0.215551,0.0492188,10.1296,-0.343641,-0.257193,0.471191,3.97778,-0.0227051
831,-2.90122e-37,-0.218963,0.0583457,10.1357,-0.271447,-0.508327,4.19751,3.97632,-0.0192871
832,-2.90309e-37,-0.223226,0.0667146,10.1217,-0.338402,-0.510735,6.66479,3.9751,-0.020752
833,-2.90495e-37,-0.226495,0.0781734,10.117,-0.434379,-0.529177,4.14795,3.97412,-0.0192871
834,-2.90682e-37,-0.218577,0.0745181,10.1202,-0.440757,-0.375415,-3.83154,3.97827,-0.0197754
835,-2.90869e-37,-0.231616,0.0553775,10.1255,-0.407561,-0.435608,-2.30737,3.97607,-0.0212402
836,-2.91056e-37,-0.211595,0.0419228,10.1423,-0.524246,-0.525476,7.26294,3.97852,-0.0119629
837,-2.91243e-37,-0.216559,0.062194,10.1491,-0.322073,-0.479908,-2.0188,3.97607,-0.0192871
838,-2.9143e-37,-0.233927,0.0362864,10.1598,-0.40368,-0.513335,-3.40601,3.97388,-0.0183105
839,-2.91616e-37,-0.208577,0.047781,10.1354,-0.274751,-0.55474,6.5603,3.97461,-0.0227051
840,-2.91803e-37,-0.22432,0.0632242,10.1278,-0.381588,-0.583121,6.71436,3.97729,-0.0183105
841,-2.9199e-37,-0.224277,0.0504705,10.1126,-0.390246,-0.459404,-6.66016,3.97534,-0.0202637
842,-2.92177e-37,-0.225708,0.0647046,10.1684,-0.257052,-0.434738,5.98267,3.9751,-0.0227051
843,-2.92364e-37,-0.230379,0.053539,10.1352,-0.257,-0.366629,-4.35645,3.97876,-0.0192871
844,-2.92551e-37,-0.230085,0.0534675,10.1297,-0.338928,-0.458546,-1.70361,3.97559,-0.0217285
845,-2.92737e-37,-0.221774,0.0357785,10.1138,-0.309497,-0.350428,0.814697,3.97559,-0.0183105
846,-2.92924e-37,-0.210651,0.0476093,10.1378,-0.273137,-0.468958,1.15161,3.97876,-0.0178223
847,-2.93111e-37,-0.224771,0.0429814,10.1163,-0.329463,-0.42859,1.73169,3.97656,-0.0168457
848,-2.93298e-37,-0.201953,0.0497482,10.1284,-0.381524,-0.316233,3.69849,3.97681,-0.0183105
849,-2.93485e-37,-0.22402,0.067015,10.1414,-0.411506,-0.387889,2.98755,3.979,-0.020752
850,-2.93672e-37,-0.214442,0.0713782,10.1229,-0.292527,-0.466525,-3.61719,3.97485,-0.0153809
851,-2.93858e-37,-0.210873,0.0544689,10.1532,-0.428411,-0.482662,0.474365,3.97534,-0.0231934
852,-2.94045e-37,-0.212139,0.0495907,10.1292,-0.34934,-0.373801,-2.19824,3.97314,-0.0197754
853,-2.94232e-37,-0.227396,0.0380603,10.1423,-0.244385,-0.29254,2.64844,3.97729,-0.0158691
854,-2.94419e-37,-0.225379,0.0748903,10.1348,-0.287648,-0.386647,-1.80811,3.97534,-0.0202637
855,-2.94606e-37,-0.209979,0.0389186,10.1324,-0.238123,-0.296318,-1.15405,3.97705,-0.0222168
856,-2.94793e-37,-0.231008,0.0610996,10.118,-0.396726,-0.451694,-0.524902,3.97681,-0.0227051
857,-2.94979e-37,-0.227382,0.0439471,10.1501,-0.313249,-0.536759,-3.82886,3.97632,-0.0187988
858,-2.95166e-37,-0.216753,0.0517866,10.1372,-0.38251,-0.521852,-7.81641,3.97681,-0.0202637
859,-2.95353e-37,-0.225672,0.062237,10.1328,-0.372328,-0.300199,-6.66162,3.97632,-0.0227051
860,-2.9554e-37,-0.217439,0.0484679,10.1097,-0.406972,-0.436223,7.55396,3.97705,-0.0163574
861,-2.95727e-37,-0.210766,0.0554059,10.13,-0.29619,-0.235971,-6.08252,3.97485,-0.0227051
862,-2.95914e-37,-0.211295,0.0323237,10.1436,-0.496622,-0.486914,-6.81689,3.97485,-0.0183105
863,-2.961e-37,-0.214006,0.0555917,10.1156,-0.425747,-0.584145,2.52124,3.97437,-0.0192871
864,-2.96287e-37,-0.194629,0.0523089,10.155,-0.384534,-0.451899,4.82739,3.97583,-0.0217285
865,-2.96474e-37,-0.228927,0.0556706,10.1496,-0.368935,-0.484916,-3.45581,3.97192,-0.0168457
866,-2.96661e-37,-0.205515,0.0758917,10.0999,-0.292015,-0.342373,-4.35278,3.97583,-0.020752
867,-2.96848e-37,-0.204307,0.0706272,10.1254,-0.313877,-0.463797,-5.52661,3.97095,-0.0158691
868,-2.97035e-37,-0.213126,0.0568723,10.1252,-0.385084,-0.340772,-6.84302,3.97461,-0.026123
869,-2.97221e-37,-0.233791,0.0660708,10.1506,-0.409623,-0.429807,2.23169,3.97534,-0.020752
870,-2.97408e-37,-0.209228,0.0697831,10.135,-0.359329,-0.345984,0.894775,3.97461,-0.0197754
871,-2.97595e-37,-0.223355,0.049655,10.1274,-0.372905,-0.255003,1.62842,3.97534,-0.0217285
872,-2.97782e-37,-0.220629,0.0372949,10.1359,-0.319192,-0.414195,-0.208008,3.97559,-0.0163574
873,-2.97969e-37,-0.208184,0.0556704,10.1289,-0.284715,-0.504767,5.45898,3.97437,-0.0222168
874,-2.98156e-37,-0.211717,0.0502559,10.1325,-0.236765,-0.499926,-6.97607,3.97607,-0.017334
875,-2.98342e-37,-0.213205,0.0527737,10.1181,-0.251826,-0.412761,2.10034,3.97559,-0.0192871
876,-2.98529e-37,-0.221867,0.0478024,10.1312,-0.307268,-0.515896,-1.38647,3.97388,-0.0183105
877,-2.98716e-37,-0.206738,0.0541543,10.1364,-0.344716,-0.377195,-5.37451,3.9751,-0.0192871
878,-2.98903e-37,-0.218591,0.0596545,10.13,-0.388043,-0.451541,-4.77222,3.97559,-0.0236816
879,-2.9909e-37,-0.190115,0.0541184,10.143,-0.408534,-0.365067,-3.82642,3.97437,-0.0168457
880,-2.99277e-37,-0.233004,0.0425809,10.1281,-0.438388,-0.513898,-2.38623,3.97632,-0.0202637
881,-2.99463e-37,-0.219943,0.0582599,10.1357,-0.249406,-0.461901,-7.79028,3.97705,-0.0192871
882,-2.9965e-37,-0.212017,0.0830946,10.1274,-0.383266,-0.432061,5.22119,3.97559,-0.0192871
883,-2.99837e-37,-0.233176,0.0729876,10.1299,-0.315337,-0.388107,7.78882,3.97778,-0.0222168
884,-3.00024e-37,-0.213627,0.0619079,10.1339,-0.361622,-0.475221,3.69971,3.97607,-0.0163574
885,-3.00211e-37,-0.206603,0.0680522,10.1285,-0.384278,-0.491909,-1.72754,3.97412,-0.0192871
886,-3.00398e-37,-0.204164,0.0430816,10.129,-0.3362,-0.378514,-4.14014,3.97363,-0.0148926
887,-3.00584e-37,-0.228633,0.0527093,10.1179,-0.329745,-0.387787,-5.60986,3.97437,-0.0192871
888,-3.00771e-37,-0.221073,0.0450558,10.1301,-0.292963,-0.311226,-3.24805,3.97363,-0.0187988
889,-3.00958e-37,-0.230815,0.0658278,10.1519,-0.312891,-0.425183,-1.52075,3.97632,-0.0183105
890,-3.01145e-37,-0.226001,0.0325526,10.1225,-0.334765,-0.419062,2.51758,3.97729,-0.020752
891,-3.01332e-37,-0.200115,0.0481172,10.1294,-0.294909,-0.390784,-2.57056,3.97681,-0.0187988
892,-3.01519e-37,-0.229992,0.0461145,10.1529,-0.351466,-0.308075,7.97217,3.97803,-0.0202637
893,-3.01705e-37,-0.217732,0.0444552,10.1357,-0.319115,-0.521698,6.92554,3.97632,-0.0148926
894,-3.01892e-37,-0.22329,0.0658848,10.1261,-0.352247,-0.497198,-1.83472,3.97559,-0.0183105
895,-3.02079e-37,-0.203126,0.069533,10.1291,-0.332204,-0.449235,-4.82422,3.97534,-0.0251465
896,-3.02266e-37,-0.220014,0.0604058,10.1387,-0.449671,-0.365246,2.20923,3.97266,-0.017334
897,-3.02453e-37,-0.231151,0.0581955,10.1337,-0.320793,-0.382164,-1.46606,3.97461,-0.0197754
898,-3.0264e-37,-0.20877,0.0472159,10.1229,-0.347777,-0.523978,3.41113,3.97583,-0.0168457
899,-3.02826e-37,-0.22392,0.053246,10.1186,-0.416526,-0.480715,3.51587,3.97607,-0.0197754
900,-3.03013e-37,-0.208412,0.0763852,10.1154,-0.285612,-0.425004,7.34326,3.97754,-0.0178223
901,-3.032e-37,-0.229477,0.0420662,10.1239,-0.343935,-0.340657,1.05225,3.97461,-0.0148926
902,-3.03387e-37,-0.230865,0.057888,10.1414,-0.272715,-0.396073,7.79614,3.97266,-0.0222168
903,-3.03574e-37,-0.205008,0.0534173,10.1399,-0.311879,-0.311853,4.1709,3.97656,-0.013916
904,-3.0376e-37,-0.23196,0.0493332,10.1577,-0.353079,-0.413555,-5.03833,3.97827,-0.0197754
905,-3.03947e-37,-0.219964,0.0570511,10.1392,-0.443626,-0.520699,-2.72559,3.9751,-0.0197754
906,-3.04134e-37,-0.207898,0.0653337,10.1482,-0.357588,-0.4144,4.25391,3.97339,-0.0197754
907,-3.04321e-37,-0.220165,0.0554631,10.1135,-0.404961,-0.478295,-3.64478,3.97583,-0.0202637
908,-3.04508e-37,-0.216588,0.0472302,10.1516,-0.302927,-0.469342,1.31128,3.97705,-0.0163574
909,-3.04695e-37,-0.204285,0.0457853,10.1308,-0.396368,-0.382561,6.50513,3.97681,-0.0217285
910,-3.04881e-37,-0.219399,0.055778,10.1193,-0.311264,-0.413132,-7.47388,3.97534,-0.017334
911,-3.05068e-37,-0.210651,0.0394193,10.1125,-0.35801,-0.431907,4.28101,3.97266,-0.0202637
912,-3.05255e-37,-0.204407,0.0495764,10.1459,-0.363735,-0.562706,-1.46826,3.97632,-0.0187988
913,-3.05442e-37,-0.221566,0.0456709,10.165,-0.318244,-0.383074,-1.15527,3.97754,-0.0197754
914,-3.05629e-37,-0.216166,0.0422445,10.1297,-0.279272,-0.409315,-1.26001,3.97754,-0.0197754
915,-3.05816e-37,-0.219843,0.0527452,10.1525,-0.265184,-0.395714,7.76587,3.97559,-0.0197754
916,-3.06002e-37,-0.223956,0.067344,10.126,-0.31608,-0.497352,3.96436,3.97412,-0.0231934
917,-3.06189e-37,-0.217668,0.0595617,10.1456,-0.383112,-0.291439,-5.1062,3.97021,-0.0197754
918,-3.06376e-37,-0.220315,0.0542972,10.1382,-0.344998,-0.394741,-0.969727,3.97632,-0.0197754
919,-3.06563e-37,-0.212482,0.0547262,10.1324,-0.2575,-0.404833,7.81763,3.97583,-0.020752
920,-3.0675e-37,-0.212861,0.0421374,10.1189,-0.2601,-0.399646,2.41162,3.97803,-0.0148926
921,-3.06937e-37,-0.235007,0.0693325,10.1289,-0.412799,-0.429397,1.28442,3.97754,-0.0187988
922,-3.07123e-37,-0.20814,0.0672441,10.1054,-0.406242,-0.473018,-6.21777,3.97778,-0.0178223
923,-3.0731e-37,-0.23422,0.0597548,10.112,-0.419907,-0.414118,-0.890137,3.97534,-0.0212402
924,-3.07497e-37,-0.222575,0.0752551,10.127,-0.350595,-0.404308,-6.87183,3.97656,-0.017334
925,-3.07684e-37,-0.214106,0.0533316,10.1622,-0.375748,-0.403668,-3.82568,3.97412,-0.0178223
926,-3.07871e-37,-0.229148,0.0670007,10.1105,-0.27283,-0.535504,4.19507,3.97827,-0.0214844
927,-3.08058e-37,-0.206309,0.0457281,10.1634,-0.306999,-0.50825,3.93774,3.97437,-0.0183105
928,-3.08244e-37,-0.218741,0.0479954,10.1532,-0.348546,-0.442576,-1.20679,3.97681,-0.0227051
929,-3.08431e-37,-0.232203,0.0372949,10.102,-0.32872,-0.326184,7.55591,3.97534,-0.0202637
930,-3.08618e-37,-0.219392,0.0612569,10.1761,-0.416167,-0.303439,-1.25903,3.97656,-0.017334
931,-3.08805e-37,-0.219127,0.0539326,10.1611,-0.327824,-0.305565,1.94189,3.97632,-0.0222168
932,-3.08992e-37,-0.1996,0.0578737,10.1567,-0.320895,-0.312084,-1.41479,3.97534,-0.0183105
933,-3.09179e-37,-0.213584,0.0593042,10.1281,-0.300557,-0.284088,4.74976,3.97534,-0.0217285
934,-3.09365e-37,-0.216853,0.0420945,10.144,-0.435839,-0.294576,-2.20215,3.97583,-0.0192871
935,-3.09552e-37,-0.220293,0.0444835,10.1333,-0.360418,-0.213264,-7.63086,3.97534,-0.0192871
936,-3.09739e-37,-0.196224,0.0487898,10.1434,-0.320306,-0.530471,7.89795,3.97461,-0.0192871
937,-3.09926e-37,-0.218527,0.0477164,10.1629,-0.193567,-0.424812,-0.708984,3.97729,-0.0158691
938,-3.10113e-37,-0.23809,0.0804838,10.1676,-0.232193,-0.305296,3.3291,3.97827,-0.0227051
939,-3.103e-37,-0.253332,0.0727516,10.1442,-0.481855,-0.452475,-5.63647,3.97437,-0.0178223
940,-3.10486e-37,-0.219471,0.0471301,10.1172,-0.437709,-0.526232,5.09033,3.97559,-0.0202637
941,-3.10673e-37,-0.221824,0.0445479,10.132,-0.277838,-0.486901,1.1272,3.97754,-0.017334
942,-3.1086e-37,-0.223605,0.0778301,10.1799,-0.157451,-0.492792,3.11963,3.97827,-0.0212402
943,-3.11047e-37,-0.233362,0.0764351,10.1639,-0.420637,-0.434187,-7.79443,3.98022,-0.0236816
944,-3.11234e-37,-0.215565,0.0534389,10.1416,-0.432112,-0.399941,0.869873,3.97363,-0.0168457
945,-3.11421e-37,-0.216846,0.0601626,10.1513,-0.48361,-0.327593,-6.45264,3.97705,-0.0217285
946,-3.11607e-37,-0.223848,0.0380388,10.1193,-0.217273,-0.451464,6.771,3.97388,-0.0153809
947,-3.11794e-37,-0.220451,0.0455848,10.1416,-0.130056,-0.620799,6.97461,3.97876,-0.0202637
948,-3.11981e-37,-0.216338,0.0879013,10.1364,-0.308101,-0.410353,2.47021,3.97339,-0.0217285
949,-3.12168e-37,-0.202697,0.0737172,10.1442,-0.377413,-0.25613,-5.92285,3.97314,-0.0178223
950,-3.12355e-37,-0.217568,0.0653128,10.1299,-0.334266,-0.321049,3.75,3.97778,-0.0222168
951,-3.12542e-37,-0.221888,0.0464293,10.1034,-0.211868,-0.497134,-4.77393,3.97681,-0.0187988
952,-3.12728e-37,-0.223705,0.056908,10.1226,-0.21384,-0.512887,-1.31079,3.97607,-0.0197754
953,-3.12915e-37,-0.218026,0.0428813,10.1197,-0.478551,-0.353656,2.0752,3.97437,-0.0187988
954,-3.13102e-37,-0.20523,0.0634169,10.1386,-0.436185,-0.441461,-6.32104,3.97656,-0.0168457
955,-3.13289e-37,-0.228455,0.0721507,10.1477,-0.49292,-0.475144,-5.58496,3.97534,-0.0197754
956,-3.13476e-37,-0.235264,0.0436323,10.1338,-0.369831,-0.662755,-5.45532,3.97632,-0.0192871
957,-3.13663e-37,-0.226065,0.0563146,10.1396,-0.324558,-0.630085,1.86353,3.97607,-0.0212402
958,-3.13849e-37,-0.207311,0.052974,10.1348,-0.245512,-0.396175,7.45068,3.97559,-0.0178223
959,-3.14036e-37,-0.205566,0.0578665,10.1388,-0.337429,-0.445572,-3.93237,3.9751,-0.020752
960,-3.14223e-37,-0.21784,0.0444551,10.1461,-0.453859,-0.369793,1.12695,3.97754,-0.0178223
961,-3.1441e-37,-0.232045,0.0615147,10.1001,-0.225559,-0.350019,0.765381,3.97339,-0.0158691
962,-3.14597e-37,-0.22942,0.0724511,10.1319,-0.290786,-0.468753,-7.02612,3.97437,-0.0178223
963,-3.14784e-37,-0.236394,0.0674015,10.1412,-0.300391,-0.540319,2.52124,3.97437,-0.0163574
964,-3.1497e-37,-0.218992,0.0610851,10.1253,-0.366834,-0.263148,4.51685,3.97266,-0.0197754
965,-3.15157e-37,-0.222196,0.0611996,10.1256,-0.47321,-0.305591,-1.09985,3.97534,-0.0144043
966,-3.15344e-37,-0.221595,0.0443117,10.1137,-0.292822,-0.441051,-3.72217,3.97485,-0.0192871
967,-3.15531e-37,-0.218455,0.0514075,10.103,-0.246985,-0.562066,-4.93164,3.97705,-0.0202637
968,-3.15718e-37,-0.198363,0.0530526,10.1075,-0.377259,-0.416193,-4.87695,3.97559,-0.017334
969,-3.15905e-37,-0.212297,0.0691678,10.1258,-0.301313,-0.394779,-4.87695,3.97559,-0.019043
970,-3.16091e-37,-0.204664,0.0430673,10.1314,-0.392705,-0.405307,0.738281,3.97412,-0.0153809
971,-3.16278e-37,-0.213649,0.0538177,10.1252,-0.316285,-0.30504,-4.58667,3.97412,-0.0212402
972,-3.16465e-37,-0.22442,0.0535819,10.124,-0.233423,-0.538924,-3.85376,3.97534,-0.0231934
973,-3.16652e-37,-0.193835,0.0542402,10.15,-0.336866,-0.393883,5.82373,3.97632,-0.0183105
974,-3.16839e-37,-0.200494,0.068467,10.142,-0.375594,-0.574105,7.71899,3.97119,-0.0202637
975,-3.17026e-37,-0.204686,0.056672,10.1233,-0.367116,-0.435224,3.9856,3.97778,-0.0178223
976,-3.17212e-37,-0.214943,0.0490399,10.118,-0.281897,-0.340144,-1.31177,3.97705,-0.0227051
977,-3.17399e-37,-0.225257,0.0484605,10.1241,-0.266183,-0.564819,-6.37329,3.97632,-0.0187988
978,-3.17586e-37,-0.229599,0.0418443,10.1186,-0.276198,-0.381293,3.75122,3.97656,-0.0178223
979,-3.17773e-37,-0.209328,0.029577,10.1389,-0.370036,-0.468625,1.31738,3.97266,-0.0212402
980,-3.1796e-37,-0.226066,0.0626945,10.1233,-0.386954,-0.44953,2.8584,3.97729,-0.0158691
981,-3.18147e-37,-0.216402,0.0499411,10.1516,-0.447891,-0.273662,2.38501,3.97827,-0.0217285
982,-3.18333e-37,-0.238755,0.0564647,10.1257,-0.241286,-0.479165,6.6377,3.97559,-0.017334
983,-3.1852e-37,-0.226581,0.059948,10.1198,-0.185537,-0.397751,-1.83325,3.97461,-0.0187988
984,-3.18707e-37,-0.213934,0.0678018,10.1398,-0.301467,-0.271524,-3.8833,3.97778,-0.0148926
985,-3.18894e-37,-0.220765,0.0644614,10.1511,-0.3529,-0.338531,5.03613,3.97681,-0.0202637
986,-3.19081e-37,-0.231888,0.0576018,10.133,-0.257346,-0.441717,7.31641,3.97778,-0.0236816
987,-3.19268e-37,-0.217761,0.0535247,10.121,-0.257628,-0.394792,6.1665,3.97485,-0.0129395
988,-3.19454e-37,-0.212118,0.0778658,10.1313,-0.332716,-0.469752,-5.7666,3.97388,-0.0217285
989,-3.19641e-37,-0.195058,0.0475661,10.149,-0.209921,-0.310995,7.6106,3.97388,-0.0187988
990,-3.19828e-37,-0.219456,0.0572156,10.1124,-0.318308,-0.30235,-7.07983,3.9751,-0.0187988
991,-3.20015e-37,-0.235665,0.0656561,10.1469,-0.477411,-0.374262,-2.62158,3.97559,-0.0236816
992,-3.20202e-37,-0.20636,0.0437468,10.1312,-0.274879,-0.529305,4.77222,3.97803,-0.0168457
993,-3.20389e-37,-0.23849,0.0524589,10.1446,-0.363453,-0.441602,-7.8689,3.97705,-0.0236816
994,-3.20575e-37,-0.221495,0.0580882,10.1496,-0.295639,-0.376299,-1.12769,3.97632,-0.0168457
995,-3.20762e-37,-0.229456,0.0496765,10.1551,-0.423391,-0.433739,1.84009,3.97412,-0.0202637
996,-3.20949e-37,-0.206174,0.0520441,10.1228,-0.398801,-0.481407,-4.82129,3.97314,-0.0202637
997,-3.21136e-37,-0.230887,0.0568866,10.1466,-0.406485,-0.376132,-1.98975,3.97412,-0.0168457
998,-3.21323e-37,-0.224277,0.0675085,10.123,-0.321292,-0.382485,6.56299,3.97266,-0.0202637
999,-3.2151e-37,-0.205108,0.0717643,10.1094,-0.448224,-0.418152,6.97827,3.97583,-0.0163574
1000,-3.21696e-37,-0.217825,0.066257,10.1466,-0.430601,-0.48416,6.89673,3.97803,-0.0217285
1001,-3.21883e-37,-0.231881,0.0658848,10.1199,-0.296728,-0.405614,6.13599,3.97803,-0.0197754
1002,-3.2207e-37,-0.204979,0.0818071,10.1066,-0.426451,-0.39743,1.68188,3.97437,-0.0222168
1003,-3.22257e-37,-0.226387,0.0614215,10.1379,-0.218592,-0.487157,-1.78052,3.97437,-0.0217285
1004,-3.22444e-37,-0.216223,0.0669794,10.0955,-0.339401,-0.367449,-7.81567,3.97632,-0.0158691
1005,-3.22631e-37,-0.211803,0.0442332,10.1583,-0.368589,-0.372405,7.18848,3.97559,-0.0202637
1006,-3.22817e-37,-0.221509,0.0481603,10.104,-0.399992,-0.47996,6.58789,3.97363,-0.013916
1007,-3.23004e-37,-0.226123,0.0463647,10.1116,-0.398634,-0.486978,-2.19946,3.97388,-0.0187988
1008,-3.23191e-37,-0.217997,0.0470798,10.1352,-0.419356,-0.38406,2.15283,3.97534,-0.0183105
1009,-3.23378e-37,-0.198463,0.0599553,10.1312,-0.306487,-0.505177,-5.55664,3.97388,-0.0163574
1010,-3.23565e-37,-0.212933,0.060878,10.123,-0.384124,-0.389887,0.735107,3.97656,-0.0227051
1011,-3.23752e-37,-0.245128,0.044648,10.1497,-0.311572,-0.326351,-7.10889,3.97729,-0.020752
1012,-3.23938e-37,-0.197762,0.0625158,10.1316,-0.444317,-0.350211,-1.67871,3.97681,-0.0212402
1013,-3.24125e-37,-0.211381,0.055084,10.1338,-0.35363,-0.366591,7.71143,3.97681,-0.0251465
1014,-3.24312e-37,-0.220222,0.0481029,10.1505,-0.341182,-0.307473,-3.53955,3.97559,-0.0187988
1015,-3.24499e-37,-0.200887,0.0470945,10.1274,-0.370151,-0.48831,-5.40283,3.97632,-0.0246582
1016,-3.24686e-37,-0.21254,0.0713351,10.1259,-0.338326,-0.541523,-0.467773,3.97339,-0.017334
1017,-3.24873e-37,-0.207382,0.0829086,10.13,-0.327747,-0.610144,5.61499,3.97559,-0.0217285
1018,-3.25059e-37,-0.23103,0.0524518,10.1517,-0.438528,-0.436787,-1.46973,3.97729,-0.0163574
1019,-3.25246e-37,-0.220429,0.0599265,10.1388,-0.358881,-0.336725,7.31787,3.97705,-0.0202637
1020,-3.25433e-37,-0.206753,0.0629593,10.1309,-0.275865,-0.550706,-6.89941,3.97754,-0.0217285
1021,-3.2562e-37,-0.26414,0.0560997,10.1431,-0.291797,-0.453551,-1.4436,3.97729,-0.0197754
1022,-3.25807e-37,-0.207254,0.0627447,10.1274,-0.384393,-0.472916,2.49146,3.97729,-0.0217285
1023,-3.25994e-37,-0.207733,0.0704841,10.1151,-0.410109,-0.389695,-4.95508,3.9751,-0.0153809
1024,-3.2618e-37,-0.228576,0.0467724,10.1371,-0.407638,-0.385097,2.15039,3.97729,-0.0236816
1025,-3.26367e-37,-0.237739,0.0557137,10.1327,-0.393601,-0.505382,-3.56836,3.97754,-0.0187988
1026,-3.26554e-37,-0.221466,0.0605629,10.1542,-0.381204,-0.380922,0.474365,3.97534,-0.0192871
1027,-3.26741e-37,-0.235951,0.0676872,10.1316,-0.499823,-0.321215,4.03784,3.97803,-0.0227051
1028,-3.26928e-37,-0.207189,0.0486465,10.1308,-0.287456,-0.346753,-0.26001,3.9751,-0.0202637
1029,-3.27115e-37,-0.227217,0.0576374,10.1325,-0.375991,-0.526629,3.4353,3.97754,-0.0192871
1030,-3.27301e-37,-0.215458,0.0528092,10.1408,-0.356166,-0.410852,-0.812988,3.97656,-0.0183105
1031,-3.27488e-37,-0.21804,0.0427093,10.1203,-0.256424,-0.427886,0.00341797,3.97437,-0.0183105
1032,-3.27675e-37,-0.231559,0.0525519,10.1584,-0.415578,-0.47923,-4.93066,3.97632,-0.0222168
1033,-3.27862e-37,-0.205601,0.0557779,10.1352,-0.378053,-0.517241,3.25342,3.97632,-0.0187988
1034,-3.28049e-37,-0.21186,0.0684456,10.1603,-0.246191,-0.485582,2.20557,3.9751,-0.0212402
1035,-3.28236e-37,-0.221237,0.0567936,10.1253,-0.293488,-0.430012,-4.95728,3.97681,-0.0168457
1036,-3.28422e-37,-0.212246,0.0701763,10.155,-0.371432,-0.450606,-1.86157,3.97656,-0.0251465
1037,-3.28609e-37,-0.212661,0.0523227,10.132,-0.342821,-0.460262,0.398193,3.97339,-0.0227051
1038,-3.28796e-37,-0.201016,0.0560997,10.117,-0.390873,-0.436108,5.37671,3.97729,-0.0187988
1039,-3.28983e-37,-0.21088,0.0600982,10.1418,-0.390066,-0.557302,5.35132,3.97632,-0.0217285
1040,-3.2917e-37,-0.221667,0.0695328,10.1357,-0.298137,-0.449876,-3.77783,3.97729,-0.0192871
1041,-3.29357e-37,-0.230708,0.0644831,10.1158,-0.373571,-0.506278,1.20703,3.97656,-0.0217285
1042,-3.29543e-37,-0.224964,0.0726085,10.1105,-0.481893,-0.523337,7.03394,3.97363,-0.0183105
1043,-3.2973e-37,-0.210058,0.0602482,10.1035,-0.404718,-0.392397,7.03101,3.97583,-0.0202637
1044,-3.29917e-37,-0.232289,0.0371304,10.1586,-0.35153,-0.447967,1.89355,3.97339,-0.0202637
1045,-3.30104e-37,-0.214364,0.0681378,10.1338,-0.364824,-0.31485,-6.26929,3.97705,-0.0168457
1046,-3.30291e-37,-0.213727,0.0717862,10.1249,-0.331525,-0.5004,-0.815186,3.97827,-0.0222168
1047,-3.30478e-37,-0.212897,0.0620153,10.1243,-0.352452,-0.244462,3.48926,3.97632,-0.0178223
1048,-3.30664e-37,-0.218376,0.0608707,10.1228,-0.388939,-0.409559,5.2981,3.97681,-0.0212402
1049,-3.30851e-37,-0.205666,0.0661996,10.1463,-0.217631,-0.246038,6.03809,3.9729,-0.017334
1050,-3.31038e-37,-0.219199,0.049655,10.1517,-0.287417,-0.406831,-3.77588,3.97583,-0.0163574
1051,-3.31225e-37,-0.215043,0.0600335,10.1466,-0.312071,-0.424927,2.31348,3.9729,-0.0231934
1052,-3.31412e-37,-0.2352,0.0508782,10.14,-0.295819,-0.475016,-7.94556,3.97559,-0.0163574
1053,-3.31599e-37,-0.238197,0.0598834,10.1151,-0.364491,-0.528729,-3.03979,3.97461,-0.0227051
1054,-3.31785e-37,-0.214306,0.0786741,10.1259,-0.220782,-0.533352,3.88599,3.97388,-0.0217285
1055,-3.31972e-37,-0.216409,0.0434678,10.1259,-0.336443,-0.365489,6.26782,3.97729,-0.0178223
1056,-3.32159e-37,-0.208548,0.0535819,10.1481,-0.278235,-0.356153,6.08716,3.97534,-0.0197754
1057,-3.32346e-37,-0.227124,0.0735312,10.1137,-0.408675,-0.58111,-4.03467,3.97339,-0.017334
1058,-3.32533e-37,-0.209864,0.0582243,10.1211,-0.324712,-0.325096,-3.17358,3.97681,-0.0202637
1059,-3.3272e-37,-0.230264,0.0612285,10.1336,-0.273944,-0.359291,6.68896,3.97656,-0.0178223
1060,-3.32906e-37,-0.215065,0.0606347,10.1566,-0.192235,-0.440258,-6.71265,3.97534,-0.0217285
1061,-3.33093e-37,-0.218991,0.0549768,10.1327,-0.415168,-0.498543,-0.468506,3.97388,-0.0202637
1062,-3.3328e-37,-0.200644,0.0677017,10.1343,-0.332614,-0.359534,-5.4541,3.97559,-0.0197754
1063,-3.33467e-37,-0.225164,0.0377241,10.1505,-0.308613,-0.307973,-2.10034,3.97803,-0.0222168
1064,-3.33654e-37,-0.216073,0.0559855,10.1163,-0.235267,-0.440795,-5.3772,3.97681,-0.0158691
1065,-3.33841e-37,-0.214685,0.0527808,10.1344,-0.401503,-0.400094,-2.33203,3.97485,-0.0217285
1066,-3.34027e-37,-0.222918,0.0559638,10.1315,-0.435583,-0.559197,-5.45435,3.97583,-0.0168457
1067,-3.34214e-37,-0.218741,0.0527665,10.133,-0.399249,-0.497915,-3.14307,3.97339,-0.0187988
1068,-3.34401e-37,-0.196138,0.0477383,10.137,-0.400325,-0.486747,2.49072,3.97778,-0.0236816
1069,-3.34588e-37,-0.230128,0.0593614,10.1416,-0.375812,-0.412671,5.79663,3.97705,-0.017334
1070,-3.34775e-37,-0.226109,0.0605131,10.1324,-0.358932,-0.511849,0.579102,3.97559,-0.0212402
1071,-3.34961e-37,-0.219399,0.0633742,10.1543,-0.380781,-0.361289,-6.31934,3.97534,-0.017334
1072,-3.35148e-37,-0.204564,0.0501841,10.1269,-0.315286,-0.563155,-4.53491,3.97461,-0.0222168
1073,-3.35335e-37,-0.210272,0.0455207,10.1253,-0.364529,-0.395676,-3.40747,3.9751,-0.0202637
1074,-3.35522e-37,-0.220057,0.0423949,10.1441,-0.257538,-0.249905,2.83447,3.97583,-0.0192871
1075,-3.35709e-37,-0.205637,0.0532032,10.1274,-0.397776,-0.430767,-7.8623,3.97192,-0.0212402
1076,-3.35896e-37,-0.212869,0.0532527,10.1463,-0.394818,-0.475912,-5.97681,3.97412,-0.0163574
1077,-3.36082e-37,-0.212847,0.059891,10.1174,-0.515089,-0.504613,-3.35742,3.97681,-0.0197754
1078,-3.36269e-37,-0.224377,0.0427456,10.1208,-0.336174,-0.362531,7.66064,3.97559,-0.0163574
1079,-3.36456e-37,-0.222267,0.042166,10.1171,-0.373712,-0.466819,7.53076,3.97461,-0.0227051
1080,-3.36643e-37,-0.217218,0.0609494,10.1254,-0.428936,-0.452475,-3.80151,3.97559,-0.0178223
1081,-3.3683e-37,-0.222675,0.0649905,10.1316,-0.337109,-0.423506,-4.90332,3.97559,-0.0178223
1082,-3.37017e-37,-0.19249,0.0673583,10.1447,-0.324968,-0.257551,-2.27954,3.97485,-0.0202637
1083,-3.37203e-37,-0.216753,0.0499125,10.1341,-0.406319,-0.443178,4.85156,3.97754,-0.017334
1084,-3.3739e-37,-0.200008,0.0713565,10.1161,-0.394395,-0.492395,5.55957,3.97778,-0.0187988
1085,-3.37577e-37,-0.211967,0.0597908,10.1254,-0.415604,-0.390374,2.25854,3.97485,-0.0202637
1086,-3.37764e-37,-0.218426,0.05399,10.1458,-0.348392,-0.384611,-7.96997,3.97388,-0.0163574
1087,-3.37951e-37,-0.236809,0.0444621,10.1408,-0.419984,-0.45984,1.26074,3.97559,-0.0217285
1088,-3.38138e-37,-0.226616,0.0781663,10.1277,-0.338492,-0.317488,5.82251,3.97705,-0.0183105
1089,-3.38324e-37,-0.216674,0.0431533,10.1452,-0.270614,-0.455139,3.28003,3.97607,-0.020752
1090,-3.38511e-37,-0.223219,0.0579023,10.1338,-0.382036,-0.425299,2.64917,3.97705,-0.0144043
1091,-3.38698e-37,-0.212961,0.0542762,10.1201,-0.277479,-0.474504,-2.59375,3.97437,-0.0183105
1092,-3.38885e-37,-0.209557,0.0454563,10.1286,-0.372687,-0.420663,0.265625,3.97461,-0.0192871
1093,-3.39072e-37,-0.22794,0.0782306,10.1374,-0.313749,-0.318641,5.6936,3.97559,-0.0148926
1094,-3.39259e-37,-0.221602,0.052602,10.1318,-0.361711,-0.5364,-3.56543,3.97534,-0.0217285
1095,-3.39445e-37,-0.218283,0.0646691,10.1325,-0.240992,-0.46714,0.312012,3.97876,-0.0192871
1096,-3.39632e-37,-0.207347,0.0562711,10.1405,-0.280553,-0.352529,5.85693,3.97119,-0.020752
1097,-3.39819e-37,-0.222081,0.0481887,10.1318,-0.324993,-0.259267,-1.78125,3.97485,-0.0187988
1098,-3.40006e-37,-0.225722,0.0489183,10.1248,-0.41586,-0.283819,4.72314,3.97559,-0.0183105
1099,-3.40193e-37,-0.214893,0.0615717,10.1544,-0.419548,-0.35851,4.46411,3.9729,-0.020752
1100,-3.4038e-37,-0.199857,0.0458142,10.1379,-0.353131,-0.481151,-7.65723,3.97534,-0.0153809
1101,-3.40566e-37,-0.21824,0.0364366,10.1311,-0.291131,-0.385033,0.188232,3.97363,-0.0236816
1102,-3.40753e-37,-0.22339,0.0754983,10.1505,-0.266644,-0.471071,-5.1145,3.97656,-0.0197754
1103,-3.4094e-37,-0.230057,0.069626,10.1415,-0.343039,-0.480638,1.99512,3.97559,-0.0187988
1104,-3.41127e-37,-0.234034,0.0623513,10.1469,-0.34893,-0.47193,3.41382,3.97388,-0.0217285
1105,-3.41314e-37,-0.224234,0.0549411,10.1367,-0.360572,-0.237495,-5.21973,3.97656,-0.017334
1106,-3.41501e-37,-0.21196,0.0697828,10.1553,-0.359778,-0.387185,4.17383,3.97437,-0.0227051
1107,-3.41687e-37,-0.209628,0.0661566,10.1367,-0.298944,-0.484801,7.37036,3.97705,-0.0202637
1108,-3.41874e-37,-0.199371,0.0583457,10.1338,-0.29692,-0.443972,7.37451,3.97363,-0.0217285
1109,-3.42061e-37,-0.220751,0.0613073,10.1556,-0.384675,-0.520789,-1.86499,3.97876,-0.0158691
1110,-3.42248e-37,-0.225594,0.059948,10.1577,-0.362454,-0.482278,-5.56177,3.97754,-0.0197754
1111,-3.42435e-37,-0.219556,0.0699622,10.1507,-0.369805,-0.552128,2.67505,3.97729,-0.0227051
1112,-3.42622e-37,-0.21578,0.0593614,10.1169,-0.39273,-0.361174,2.62329,3.97656,-0.0129395
1113,-3.42808e-37,-0.224435,0.0572156,10.1486,-0.335431,-0.255259,3.35742,3.97705,-0.0192871
1114,-3.42995e-37,-0.205909,0.0529239,10.1509,-0.330027,-0.443395,7.03003,3.97656,-0.0168457
1115,-3.43182e-37,-0.210544,0.0650191,10.1465,-0.480344,-0.457598,-4.48438,3.97607,-0.0192871
1116,-3.43369e-37,-0.206946,0.0506064,10.1473,-0.395509,-0.421969,6.11182,3.97656,-0.0202637
1117,-3.43556e-37,-0.236351,0.0688104,10.121,-0.227903,-0.318961,-6.87256,3.97705,-0.0178223
1118,-3.43743e-37,-0.206953,0.0581097,10.1351,-0.327824,-0.449568,-2.51904,3.97754,-0.0227051
1119,-3.43929e-37,-0.233919,0.0552128,10.1477,-0.423288,-0.437453,1.46899,3.97681,-0.0163574
1120,-3.44116e-37,-0.209492,0.0415437,10.1252,-0.372162,-0.421495,0.264404,3.97534,-0.0212402
1121,-3.44303e-37,-0.218512,0.0673295,10.1257,-0.304617,-0.28597,-1.62354,3.97461,-0.0178223
1122,-3.4449e-37,-0.215351,0.0627376,10.1234,-0.403744,-0.287276,0.473145,3.97632,-0.0178223
1123,-3.44677e-37,-0.21696,0.0519296,10.1486,-0.372572,-0.426797,-7.8125,3.97388,-0.0197754
1124,-3.44864e-37,-0.230558,0.0506922,10.1108,-0.404487,-0.567957,-0.0449219,3.97119,-0.0158691
1125,-3.4505e-37,-0.231395,0.0416866,10.1362,-0.358407,-0.421751,4.5127,3.97583,-0.0202637
1126,-3.45237e-37,-0.213133,0.0522658,10.1413,-0.347175,-0.457598,-7.57886,3.97583,-0.0212402
1127,-3.45424e-37,-0.211989,0.0563429,10.16,-0.373327,-0.295102,4.04028,3.97607,-0.0187988
1128,-3.45611e-37,-0.224034,0.0613213,10.1041,-0.306,-0.379513,7.7124,3.97607,-0.0187988
1129,-3.45798e-37,-0.208613,0.0415296,10.1295,-0.393371,-0.502334,-0.625732,3.97388,-0.0168457
1130,-3.45985e-37,-0.211138,0.0558208,10.1454,-0.342885,-0.312378,4.93335,3.97534,-0.0224609
1131,-3.46171e-37,-0.223877,0.0752193,10.1402,-0.312532,-0.447647,-3.35083,3.97192,-0.0163574
1132,-3.46358e-37,-0.211839,0.051808,10.1049,-0.338313,-0.490666,-0.181152,3.97485,-0.0246582
1133,-3.46545e-37,-0.218877,0.042538,10.1251,-0.205298,-0.544021,-7.86426,3.97339,-0.0202637
1134,-3.46732e-37,-0.213927,0.0446337,10.0993,-0.306282,-0.351594,0.315674,3.97632,-0.0168457
1135,-3.46919e-37,-0.211359,0.0565432,10.1422,-0.259037,-0.49999,-1.20288,3.97437,-0.0183105
1136,-3.47106e-37,-0.204385,0.0701479,10.1373,-0.369588,-0.335162,6.06494,3.97266,-0.0153809
1137,-3.47292e-37,-0.218834,0.05728,10.1466,-0.413747,-0.348354,-3.69678,3.97559,-0.0192871
1138,-3.47479e-37,-0.228662,0.0491043,10.1541,-0.355423,-0.260189,3.3855,3.97559,-0.0192871
1139,-3.47666e-37,-0.208484,0.0705127,10.158,-0.342514,-0.369844,-2.54175,3.97485,-0.0178223
1140,-3.47853e-37,-0.220765,0.0519515,10.1613,-0.304092,-0.461492,-2.59204,3.97339,-0.0178223
1141,-3.4804e-37,-0.213813,0.0415938,10.1474,-0.250763,-0.248765,7.00391,3.97656,-0.0212402
1142,-3.48227e-37,-0.198713,0.0509712,10.1177,-0.390694,-0.367744,-0.626465,3.97437,-0.0256348
1143,-3.48413e-37,-0.186368,0.0492971,10.1279,-0.396957,-0.308716,0.685791,3.97388,-0.017334
1144,-3.486e-37,-0.208427,0.0694186,10.1454,-0.373289,-0.473492,1.41724,3.97632,-0.0178223
1145,-3.48787e-37,-0.228126,0.0426164,10.1211,-0.302005,-0.557891,-3.35376,3.97388,-0.0183105
1146,-3.48974e-37,-0.238011,0.0588894,10.1321,-0.268655,-0.401413,-6.5061,3.97754,-0.0183105
1147,-3.49161e-37,-0.220529,0.0609353,10.1257,-0.407804,-0.535542,-4.59131,3.97754,-0.0217285
1148,-3.49348e-37,-0.216774,0.0616577,10.1605,-0.275455,-0.529472,-3.06763,3.97583,-0.0158691
1149,-3.49534e-37,-0.197218,0.0603411,10.1391,-0.273406,-0.348584,2.96924,3.9729,-0.0192871
1150,-3.49721e-37,-0.213641,0.0562714,10.0995,-0.286803,-0.355679,3.98975,3.97485,-0.017334
1151,-3.49908e-37,-0.222697,0.0663426,10.1173,-0.34829,-0.306897,5.29565,3.97876,-0.0197754
1152,-3.50095e-37,-0.200723,0.0692896,10.1438,-0.385712,-0.347905,-5.1394,3.97559,-0.0217285
1153,-3.50282e-37,-0.202089,0.059819,10.1433,-0.347316,-0.391501,-3.82764,3.97559,-0.0192871
1154,-3.50469e-37,-0.204435,0.0637819,10.142,-0.369857,-0.323828,4.77905,3.9729,-0.0217285
1155,-3.50655e-37,-0.206073,0.0545619,10.1379,-0.367154,-0.382267,2.81152,3.97339,-0.0202637
1156,-3.50842e-37,-0.213698,0.0479169,10.1454,-0.395381,-0.498146,4.12061,3.9751,-0.0222168
1157,-3.51029e-37,-0.214371,0.0495191,10.1456,-0.386903,-0.346356,-7.36914,3.97583,-0.0202637
1158,-3.51216e-37,-0.206367,0.0435754,10.1117,-0.293642,-0.546019,7.5813,3.97607,-0.0158691
1159,-3.51403e-37,-0.214349,0.0470729,10.1089,-0.369344,-0.531867,-1.15332,3.97632,-0.0202637
1160,-3.5159e-37,-0.219678,0.0636962,10.1288,-0.324417,-0.4217,-7.97192,3.97534,-0.0187988
1161,-3.51776e-37,-0.233526,0.0519223,10.118,-0.35331,-0.367347,-3.93433,3.97681,-0.0217285
1162,-3.51963e-37,-0.221159,0.0502559,10.1282,-0.351901,-0.46007,4.83057,3.97363,-0.0202637
1163,-3.5215e-37,-0.209721,0.0598267,10.1429,-0.299699,-0.415757,2.83716,3.97339,-0.0222168
1164,-3.52337e-37,-0.21156,0.0539324,10.15,-0.439476,-0.425516,-5.82007,3.97461,-0.0202637
1165,-3.52524e-37,-0.207161,0.0661924,10.1396,-0.386007,-0.402758,6.32251,3.97607,-0.0212402
1166,-3.52711e-37,-0.208176,0.0614858,10.1542,-0.300762,-0.555752,-6.58325,3.97656,-0.0241699
1167,-3.52897e-37,-0.207111,0.0594473,10.1136,-0.286956,-0.429525,-2.01611,3.97412,-0.0202637
1168,-3.53084e-37,-0.205372,0.0695471,10.1235,-0.309189,-0.403373,-2.33423,3.97681,-0.0202637
1169,-3.53271e-37,-0.20269,0.0633815,10.1175,-0.321126,-0.301864,-6.89868,3.97729,-0.0163574
1170,-3.53458e-37,-0.209636,0.0559495,10.1377,-0.322099,-0.494688,-2.33252,3.97534,-0.0178223
1171,-3.53645e-37,-0.199743,0.0686384,10.1711,-0.413555,-0.536349,4.82593,3.97729,-0.0246582
1172,-3.53832e-37,-0.214843,0.0749548,10.1414,-0.394933,-0.365221,4.29834,3.97925,-0.0197754
1173,-3.54018e-37,-0.213935,0.0660849,10.1206,-0.384969,-0.463246,6.87378,3.97534,-0.020752
1174,-3.54205e-37,-0.196324,0.0707273,10.1309,-0.379693,-0.412581,2.83472,3.97534,-0.0148926
1175,-3.54392e-37,-0.215451,0.0366151,10.1373,-0.374288,-0.417832,1.78833,3.97339,-0.0192871
1176,-3.54579e-37,-0.220193,0.0445119,10.1419,-0.377631,-0.538924,4.82983,3.97437,-0.020752
1177,-3.54766e-37,-0.21882,0.0499699,10.1331,-0.290773,-0.404065,0.76001,3.97729,-0.0178223
1178,-3.54953e-37,-0.222904,0.0704627,10.1127,-0.35354,-0.413862,-1.04517,3.97363,-0.0217285
1179,-3.55139e-37,-0.214492,0.0794325,10.1147,-0.436838,-0.500899,-6.18628,3.97388,-0.0183105
1180,-3.55326e-37,-0.23339,0.0684456,10.1079,-0.437965,-0.401721,6.03662,3.97388,-0.0246582
1181,-3.55513e-37,-0.230622,0.0532102,10.1271,-0.325634,-0.542509,-0.048584,3.97388,-0.0217285
1182,-3.557e-37,-0.225207,0.0444192,10.0894,-0.349378,-0.356012,-6.6333,3.97485,-0.020752
1183,-3.55887e-37,-0.210501,0.0468154,10.1181,-0.346023,-0.367641,4.06885,3.97461,-0.0202637
1184,-3.56074e-37,-0.208398,0.0520085,10.146,-0.276429,-0.409264,4.3291,3.97583,-0.0178223
1185,-3.5626e-37,-0.207998,0.0540397,10.137,-0.355269,-0.561285,-3.90479,3.97437,-0.0231934
1186,-3.56447e-37,-0.212933,0.0719147,10.1332,-0.294666,-0.405525,-3.74683,3.97388,-0.0168457
1187,-3.56634e-37,-0.222275,0.0628232,10.1259,-0.318872,-0.404731,4.48657,3.97583,-0.0227051
1188,-3.56821e-37,-0.219943,0.0664569,10.1132,-0.265312,-0.402579,-0.969727,3.97607,-0.0202637
1189,-3.57008e-37,-0.218047,0.0450631,10.1153,-0.431088,-0.498248,-7.00391,3.97729,-0.0192871
1190,-3.57195e-37,-0.209428,0.061858,10.1436,-0.413695,-0.45934,0.239014,3.97461,-0.020752
1191,-3.57381e-37,-0.204271,0.051572,10.1316,-0.433598,-0.543329,0.341309,3.97656,-0.0192871
1192,-3.57568e-37,-0.218655,0.0556992,10.1403,-0.391385,-0.337109,5.64136,3.97534,-0.0202637
1193,-3.57755e-37,-0.206145,0.0580954,10.1416,-0.375197,-0.510671,-2.17505,3.97534,-0.0187988
1194,-3.57942e-37,-0.209636,0.0473804,10.1394,-0.321971,-0.43662,-2.74927,3.97314,-0.0197754
1195,-3.58129e-37,-0.2254,0.0646617,10.1215,-0.272945,-0.496967,4.59204,3.97559,-0.0202637
1196,-3.58316e-37,-0.242381,0.0490041,10.129,-0.285996,-0.489885,-0.419189,3.97632,-0.0202637
1197,-3.58502e-37,-0.222181,0.066486,10.1363,-0.392602,-0.453052,-0.726562,3.9707,-0.0222168
1198,-3.58689e-37,-0.220458,0.0590324,10.121,-0.332498,-0.380679,6.1145,3.97461,-0.017334
1199,-3.58876e-37,-0.215279,0.0442904,10.1234,-0.361878,-0.344025,1.70654,3.97583,-0.0212402
1200,-3.59063e-37,-0.215544,0.0643401,10.1286,-0.323751,-0.352926,7.97778,3.97388,-0.0222168
1201,-3.5925e-37,-0.228619,0.060463,10.109,-0.350339,-0.370138,-2.30249,3.97241,-0.0183105
1202,-3.59437e-37,-0.225494,0.0543829,10.1324,-0.413119,-0.445547,2.15503,3.97388,-0.0202637
1203,-3.59623e-37,-0.205008,0.0383607,10.1632,-0.219578,-0.319243,-5.71582,3.9751,-0.0202637
1204,-3.5981e-37,-0.211946,0.0582241,10.1338,-0.321395,-0.499951,-5.2439,3.97534,-0.0197754
1205,-3.59997e-37,-0.215687,0.0719505,10.1332,-0.290862,-0.482585,0.1604,3.97461,-0.0183105
1206,-3.60184e-37,-0.217368,0.0586891,10.138,-0.324558,-0.284958,7.84473,3.97534,-0.017334
1207,-3.60371e-37,-0.211967,0.0318302,10.1543,-0.345011,-0.411403,1.36621,3.97534,-0.0222168
1208,-3.60558e-37,-0.216981,0.0511428,10.1248,-0.381025,-0.568931,-3.03784,3.97314,-0.0144043
1209,-3.60744e-37,-0.221123,0.0462928,10.1211,-0.233025,-0.467806,-4.40161,3.97314,-0.0222168
1210,-3.60931e-37,-0.215615,0.0629522,10.1349,-0.26448,-0.409533,-4.30078,3.97607,-0.0168457
1211,-3.61118e-37,-0.201975,0.066643,10.1454,-0.341912,-0.533865,-3.25024,3.9751,-0.0202637
1212,-3.61305e-37,-0.20784,0.0621153,10.1437,-0.420189,-0.601076,-6.18994,3.97656,-0.0168457
1213,-3.61492e-37,-0.219235,0.0537822,10.1293,-0.412581,-0.323802,-1.46533,3.97412,-0.0168457
1214,-3.61679e-37,-0.209042,0.0577735,10.1437,-0.335636,-0.432381,6.34985,3.97534,-0.020752
1215,-3.61865e-37,-0.207318,0.0510643,10.1506,-0.308383,-0.438503,-2.98804,3.9751,-0.0168457
1216,-3.62052e-37,-0.220365,0.0436753,10.094,-0.33433,-0.419779,-2.87964,3.97241,-0.0231934
1217,-3.62239e-37,-0.238619,0.0438256,10.0916,-0.269628,-0.399416,-2.15015,3.97632,-0.0202637
1218,-3.62426e-37,-0.243497,0.0447696,10.0903,-0.429038,-0.599501,5.4834,3.97607,-0.0187988
1219,-3.62613e-37,-0.22236,0.0619436,10.1288,-0.477065,-0.520942,4.38037,3.97705,-0.0222168
1220,-3.628e-37,-0.210973,0.061221,10.1207,-0.424338,-0.442447,2.46753,3.97534,-0.013916
1221,-3.62986e-37,-0.211517,0.0582172,10.1354,-0.408714,-0.383304,7.65625,3.97876,-0.020752
1222,-3.63173e-37,-0.204471,0.0641252,10.1281,-0.278798,-0.642648,2.7832,3.97461,-0.0163574
1223,-3.6336e-37,-0.224549,0.0475521,10.0989,-0.508942,-0.368192,-5.19287,3.97632,-0.0183105
1224,-3.63547e-37,-0.204207,0.0555204,10.1332,-0.371547,-0.32247,-5.14062,3.97656,-0.0158691
1225,-3.63734e-37,-0.215794,0.0566219,10.1194,-0.388299,-0.502308,1.78613,3.9751,-0.0158691
1226,-3.63921e-37,-0.205809,0.0611282,10.1265,-0.344383,-0.483315,-5.10913,3.97266,-0.0246582
1227,-3.64107e-37,-0.214657,0.0397913,10.1349,-0.434174,-0.333741,-0.521973,3.97485,-0.0148926
1228,-3.64294e-37,-0.210887,0.0460572,10.1333,-0.394728,-0.418626,-2.87988,3.9729,-0.020752
1229,-3.64481e-37,-0.217876,0.0476093,10.1267,-0.412466,-0.321715,-2.90967,3.97534,-0.0197754
1230,-3.64668e-37,-0.208455,0.0501627,10.1355,-0.421879,-0.306231,6.50635,3.97583,-0.0129395
1231,-3.64855e-37,-0.245164,0.0671795,10.1393,-0.355385,-0.471212,-5.34814,3.97485,-0.0241699
1232,-3.65042e-37,-0.213448,0.0783453,10.1417,-0.331192,-0.480293,3.17236,3.97803,-0.0187988
1233,-3.65228e-37,-0.207797,0.0720077,10.1262,-0.38429,-0.334368,-1.23242,3.97656,-0.0202637
1234,-3.65415e-37,-0.217868,0.0516581,10.12,-0.28095,-0.30244,4.98682,3.97461,-0.017334
1235,-3.65602e-37,-0.219313,0.051808,10.1184,-0.333946,-0.401337,5.40527,3.97534,-0.0163574
1236,-3.65789e-37,-0.221502,0.0535462,10.1243,-0.336251,-0.569699,5.98438,3.97388,-0.0192871
1237,-3.65976e-37,-0.229742,0.0596762,10.1107,-0.373135,-0.3748,7.50439,3.97461,-0.0197754
1238,-3.66162e-37,-0.209793,0.0608925,10.1352,-0.283332,-0.399979,4.46362,3.97339,-0.0222168
1239,-3.66349e-37,-0.213491,0.0517792,10.1073,-0.279298,-0.430345,1.39038,3.97681,-0.0168457
1240,-3.66536e-37,-0.224728,0.0712423,10.1372,-0.382958,-0.40701,-5.47949,3.97485,-0.0227051
1241,-3.66723e-37,-0.22372,0.0540968,10.1636,-0.500144,-0.427297,-7.31812,3.97681,-0.0212402
1242,-3.6691e-37,-0.225079,0.0554987,10.1344,-0.35573,-0.435416,-0.811279,3.97534,-0.0168457
1243,-3.67097e-37,-0.213798,0.0578379,10.1413,-0.344191,-0.541805,7.19385,3.97168,-0.0202637
1244,-3.67283e-37,-0.222954,0.0641682,10.0946,-0.365656,-0.402361,2.46606,3.97656,-0.0153809
1245,-3.6747e-37,-0.221774,0.068231,10.1115,-0.312788,-0.477872,-2.30786,3.97656,-0.0187988
1246,-3.67657e-37,-0.221445,0.0416653,10.1096,-0.348494,-0.413529,6.09058,3.97266,-0.0148926
1247,-3.67844e-37,-0.219299,0.0587535,10.1256,-0.301518,-0.518675,-7.54956,3.97339,-0.0178223
1248,-3.68031e-37,-0.225908,0.0513648,10.1458,-0.352618,-0.52344,-5.39941,3.97388,-0.0202637
1249,-3.68218e-37,-0.221016,0.0782736,10.1439,-0.391654,-0.400158,-4.35034,3.97388,-0.0197754
1250,-3.68404e-37,-0.225136,0.0613139,10.154,-0.395023,-0.516588,-7.18457,3.9751,-0.0253906
1251,-3.68591e-37,-0.203463,0.0416939,10.1402,-0.307755,-0.343077,-5.89941,3.9751,-0.0163574
1252,-3.68778e-37,-0.209965,0.0501412,10.145,-0.326005,-0.511247,-0.211914,3.97827,-0.020752
1253,-3.68965e-37,-0.224749,0.0668576,10.1382,-0.366578,-0.366143,6.50732,3.9751,-0.0168457
1254,-3.69152e-37,-0.20887,0.0516364,10.1361,-0.195757,-0.461889,3.7832,3.97241,-0.0197754
1255,-3.69339e-37,-0.205501,0.0426596,10.1463,-0.288634,-0.52198,1.57812,3.97363,-0.0202637
1256,-3.69525e-37,-0.234277,0.0616647,10.124,-0.316221,-0.345523,-1.78149,3.9751,-0.0163574
1257,-3.69712e-37,-0.220923,0.0506207,10.126,-0.443344,-0.493522,3.93823,3.97412,-0.020752
1258,-3.69899e-37,-0.228719,0.050907,10.112,-0.399966,-0.522095,-1.64746,3.9729,-0.017334
1259,-3.70086e-37,-0.228498,0.0546406,10.1381,-0.434776,-0.379321,2.6521,3.97461,-0.0192871
1260,-3.70273e-37,-0.210844,0.0610996,10.143,-0.325621,-0.359995,-2.19971,3.97412,-0.0197754
1261,-3.7046e-37,-0.223412,0.0708275,10.117,-0.363146,-0.501386,6.24805,3.9729,-0.017334
1262,-3.70646e-37,-0.220007,0.0675302,10.1553,-0.334778,-0.569994,-4.14209,3.97534,-0.0187988
1263,-3.70833e-37,-0.225343,0.0566148,10.1329,-0.405012,-0.446328,-7.1062,3.97534,-0.0187988
1264,-3.7102e-37,-0.20681,0.0563646,10.1207,-0.313006,-0.416411,0.446777,3.97632,-0.0241699
1265,-3.71207e-37,-0.220486,0.0622083,10.135,-0.258409,-0.44465,4.56812,3.97363,-0.0217285
1266,-3.71394e-37,-0.211388,0.0544119,10.1652,-0.349032,-0.38397,6.8186,3.97754,-0.0222168
1267,-3.71581e-37,-0.216953,0.0619293,10.1165,-0.281577,-0.421277,-4.87305,3.97266,-0.0217285
1268,-3.71767e-37,-0.208455,0.0531885,10.0988,-0.450529,-0.408419,-1.64673,3.97241,-0.0168457
1269,-3.71954e-37,-0.23761,0.0426812,10.1296,-0.455908,-0.48895,-0.180176,3.97412,-0.0202637
1270,-3.72141e-37,-0.226037,0.0601912,10.1634,-0.315964,-0.493087,6.55908,3.97559,-0.0192871
1271,-3.72328e-37,-0.225143,0.0418081,10.1473,-0.353745,-0.565524,5.67065,3.97314,-0.0197754
1272,-3.72515e-37,-0.208155,0.0463862,10.1245,-0.472109,-0.511017,-7.97363,3.97656,-0.0212402
1273,-3.72702e-37,-0.217632,0.0573586,10.1279,-0.410276,-0.303029,-1.05054,3.97778,-0.0202637
1274,-3.72888e-37,-0.209822,0.0586244,10.1644,-0.242554,-0.343576,1.63135,3.97314,-0.0212402
1275,-3.73075e-37,-0.219964,0.0570082,10.1319,-0.230771,-0.415937,4.82935,3.97461,-0.0187988
1276,-3.73262e-37,-0.234062,0.0590467,10.1516,-0.319397,-0.382459,-0.680908,3.97583,-0.0192871
1277,-3.73449e-37,-0.20136,0.0511214,10.1506,-0.34414,-0.543752,-3.09229,3.97485,-0.0148926
1278,-3.73636e-37,-0.224878,0.0631737,10.098,-0.360917,-0.470469,-7.76123,3.97461,-0.0197754
1279,-3.73823e-37,-0.219034,0.0609279,10.1399,-0.299827,-0.401157,2.15015,3.97754,-0.0227051
1280,-3.74009e-37,-0.220837,0.0601341,10.1566,-0.266849,-0.334624,7.00366,3.97656,-0.0178223
1281,-3.74196e-37,-0.207325,0.0429314,10.1342,-0.291003,-0.46308,-2.43799,3.97559,-0.020752
1282,-3.74383e-37,-0.222761,0.0463647,10.1338,-0.217362,-0.377093,3.6499,3.97388,-0.0183105
1283,-3.7457e-37,-0.23201,0.0714068,10.1272,-0.337314,-0.220487,7.74292,3.97314,-0.0222168
1284,-3.74757e-37,-0.210852,0.045771,10.1515,-0.315375,-0.380615,-2.09424,3.97363,-0.0202637
1285,-3.74944e-37,-0.213119,0.0498696,10.1502,-0.39962,-0.561298,1.99292,3.97729,-0.0129395
1286,-3.7513e-37,-0.228798,0.0431605,10.1288,-0.299776,-0.48174,5.19336,3.97705,-0.0187988
1287,-3.75317e-37,-0.211939,0.0530097,10.1137,-0.369831,-0.335943,-3.51221,3.97485,-0.0183105
1288,-3.75504e-37,-0.191274,0.0502916,10.1342,-0.304067,-0.43972,-3.5105,3.97363,-0.0217285
1289,-3.75691e-37,-0.214571,0.073996,10.1414,-0.31631,-0.234857,-4.56348,3.97656,-0.017334
1290,-3.75878e-37,-0.215766,0.0544115,10.153,-0.43881,-0.404026,0.946777,3.9751,-0.0192871
1291,-3.76065e-37,-0.225801,0.0651839,10.1307,-0.312929,-0.477424,1.1333,3.9729,-0.0217285
