timestamp_ms,acc_x,acc_y,acc_z,gyr_x,gyr_y,gyr_z,mag_x,mag_y,mag_z
0,-1.69567e-37,0,0,0,0,0,0,0,-0.586426
1,-1.6966e-37,-0.0523588,0.0254212,9.98698,-1.22948,0.0966553,6.16699,-4.09937,-0.590088
2,-1.69754e-37,-0.0616575,0.00712423,10.0108,-1.16068,0.308101,-2.15283,-4.14673,-0.585693
3,-1.69847e-37,-0.0566076,-0.00188835,10.0144,-1.1623,0.201597,1.71899,-4.10791,-0.584717
4,-1.69941e-37,-0.0788674,0.000128767,9.97047,-1.19836,0.188431,-0.199951,-4.12451,-0.591797
5,-1.70034e-37,-0.0626732,0.00569366,9.98515,-1.17375,0.183616,6.88281,-4.09375,-0.586914
6,-1.70128e-37,-0.0446266,-0.0125175,10.0053,-1.06886,0.218092,1.2627,-4.08813,-0.592041
7,-1.70221e-37,-0.0577592,-0.015958,10.0382,-1.05413,0.277005,0.460205,-4.10791,-0.586914
8,-1.70314e-37,-0.0599836,0.00274667,9.97781,-1.13445,0.281872,-5.44971,-4.12158,-0.590576
9,-1.70408e-37,-0.0640609,0.00108723,9.97964,-1.15077,0.134488,-7.97144,-4.0874,-0.5896
10,-1.70501e-37,-0.0715928,0.00303281,10.0034,-1.14752,0.121322,0.00976562,-4.09302,-0.587158
11,-1.70595e-37,-0.0900899,0.0214871,10.0053,-1.08525,0.21799,-7.25684,-4.10352,-0.589111
12,-1.70688e-37,-0.0647692,0.0143916,10.02,-1.24098,0.244193,-7.83276,-4.10474,-0.586182
13,-1.70781e-37,-0.074268,-0.0020028,9.99245,-1.19017,0.239301,-0.389648,-4.10034,-0.588379
14,-1.70875e-37,-0.098416,-0.0128751,9.98326,-1.14921,0.219527,5.82837,-4.12109,-0.591553
15,-1.70968e-37,-0.0840959,0.0110511,9.99798,-1.11642,0.153903,-4.5127,-4.14746,-0.588135
16,-1.71062e-37,-0.0696758,0.00761063,9.99615,-1.08689,0.28702,3.56909,-4.08716,-0.593262
17,-1.71155e-37,-0.0609351,0.00786813,9.99251,-1.13118,0.258973,-4.10547,-4.10645,-0.587158
18,-1.71249e-37,-0.0448269,0.000743896,9.99249,-1.1344,0.117966,-2.63013,-4.11133,-0.588379
19,-1.71342e-37,-0.0724654,0.0156576,9.96323,-1.08853,0.219706,7.20947,-4.09448,-0.587402
20,-1.71435e-37,-0.098416,0.00306142,9.96867,-1.18033,0.0982434,7.76074,-4.1145,-0.588135
21,-1.71529e-37,-0.0839529,0.00299704,10.0181,-1.46063,0.0423019,-5.27246,-4.12842,-0.588623
22,-1.71622e-37,-0.0565575,0.00811132,10.0438,-1.07213,0.229516,-2.95508,-4.104,-0.587402
23,-1.71716e-37,-0.0568651,0.0232324,9.99261,-1.08528,0.263865,-7.66626,-4.11133,-0.593018
24,-1.71809e-37,-0.0719147,0.0234041,10.0091,-1.04755,0.214737,1.61108,-4.10547,-0.585205
25,-1.71902e-37,-0.0813207,0.00565075,9.95041,-1.23594,-0.0080941,1.37231,-4.09155,-0.589355
26,-1.71996e-37,-0.0831518,-0.023819,9.99605,-1.26399,0.211305,-1.7334,-4.11548,-0.5896
27,-1.72089e-37,-0.0797901,-0.0053217,9.95587,-1.27377,0.157079,1.80713,-4.12598,-0.585449
28,-1.72183e-37,-0.0617361,-0.0294268,10.0162,-1.18694,0.216248,2.56885,-4.11572,-0.591553
29,-1.72276e-37,-0.0766999,0.0203284,9.9725,-1.20333,0.21945,-6.0249,-4.1228,-0.586182
30,-1.7237e-37,-0.0550553,-0.00351922,9.99987,-1.20661,0.19819,3.25269,-4.11694,-0.589355
31,-1.72463e-37,-0.0608349,0.00763924,9.98163,-1.13443,0.119375,-0.278564,-4.13599,-0.58667
32,-1.72556e-37,-0.0793322,-0.00886953,10.0145,-1.31311,0.227877,-4.95581,-4.09863,-0.586914
33,-1.7265e-37,-0.0576235,0.000658067,9.94315,-1.27208,0.0408675,-1.89673,-4.11084,-0.589844
34,-1.72743e-37,-0.0650478,0.00228174,9.97429,-1.43435,0.151034,-5.56128,-4.08496,-0.58667
35,-1.72837e-37,-0.0561284,-0.00174529,9.99259,-1.39331,0.0492177,1.21606,-4.09277,-0.592041
36,-1.7293e-37,-0.0525806,-0.00218877,10.0311,-1.42945,0.0537771,6.34888,-4.11768,-0.586182
37,-1.73023e-37,-0.0856267,-0.0080398,10.0402,-1.2541,0.172089,-5.57861,-4.10352,-0.590332
38,-1.73117e-37,-0.0602198,0.0198134,9.98912,-1.22951,0.255873,5.56982,-4.09253,-0.588867
39,-1.7321e-37,-0.0697762,0.0123387,10.0147,-1.05897,0.234947,4.24634,-4.0835,-0.588379
40,-1.73304e-37,-0.0846828,0.00753914,9.95607,-1.24749,0.224906,4.14478,-4.08594,-0.591309
41,-1.73397e-37,-0.0868427,-0.0071743,9.96695,-1.38517,0.0556725,-5.323,-4.09888,-0.585449
42,-1.73491e-37,-0.0503346,-0.00381247,9.98901,-1.21965,0.237943,-3.14258,-4.08936,-0.591553
43,-1.73584e-37,-0.0507208,0.00525734,10.0074,-1.21637,0.162381,-6.8479,-4.0957,-0.585938
44,-1.73677e-37,-0.0765569,0.00921286,9.97445,-1.1508,0.151009,-7.49243,-4.09253,-0.590088
45,-1.73771e-37,-0.0950899,0.00197418,9.97988,-1.29344,0.185204,-4.27197,-4.09985,-0.591064
46,-1.73864e-37,-0.0935306,0.00188835,9.98538,-1.39021,0.21466,0.605713,-4.09888,-0.587402
47,-1.73958e-37,-0.0754983,-0.00542186,9.96339,-1.37697,0.02742,-7.02539,-4.12012,-0.588135
48,-1.74051e-37,-0.0921213,0.00667358,10.0239,-1.25412,0.157284,-5.89014,-4.10596,-0.58667
49,-1.74144e-37,-0.0739962,-0.0096778,10.0128,-1.29347,0.191582,-5.14844,-4.11133,-0.590332
50,-1.74238e-37,-0.0486679,0.012403,10.0003,-1.26227,0.0933255,-1.4292,-4.10718,-0.588379
51,-1.74331e-37,-0.0597693,0.00139482,10.0002,-1.22953,0.162048,-5.19604,-4.11499,-0.584961
52,-1.74425e-37,-0.0471587,-0.0242124,10.0036,-1.23443,0.208308,5.37476,-4.0957,-0.590088
53,-1.74518e-37,-0.0548265,-0.00962057,10.0111,-1.22147,0.23697,1.70117,-4.15674,-0.588135
54,-1.74611e-37,-0.0624729,-0.000164515,9.98553,-1.18694,0.127367,-7.73193,-4.13257,-0.592773
55,-1.74705e-37,-0.0700621,0.0031401,10.0295,-1.28858,0.208077,6.75269,-4.10596,-0.586426
56,-1.74798e-37,-0.0520586,0.0141841,10.0224,-1.09995,0.129672,2.96826,-4.1001,-0.589844
57,-1.74892e-37,-0.0741964,0.0108079,10.0132,-1.12795,0.307025,-7.54932,-4.08936,-0.589111
58,-1.74985e-37,-0.0709347,0.00399129,9.9838,-1.16071,0.274085,-1.88013,-4.09229,-0.584717
59,-1.75079e-37,-0.0677017,-0.001638,10.0094,-1.18023,0.166326,-5.30444,-4.0813,-0.589111
60,-1.75172e-37,-0.0698186,0.0019241,10.0278,-1.20635,0.0730646,-6.88403,-4.0769,-0.587646
61,-1.75265e-37,-0.0643255,-0.0102357,9.97639,-1.16394,0.200162,-5.48291,-4.09619,-0.593994
62,-1.75359e-37,-0.0481815,-0.0121884,10.002,-1.31301,0.0507034,-3.11597,-4.10132,-0.589844
63,-1.75452e-37,-0.0537035,-0.0157076,9.98187,-1.226,0.0152277,-1.04688,-4.0874,-0.58667
64,-1.75546e-37,-0.0519368,-0.00102286,9.98389,-1.20971,0.171398,1.35352,-4.07788,-0.59082
65,-1.75639e-37,-0.0741321,-0.0101141,9.9801,-1.2196,0.174343,-2.30835,-4.08545,-0.587158
66,-1.75732e-37,-0.0743538,-0.0209578,9.97267,-1.17539,0.177443,5.82861,-4.08984,-0.591553
67,-1.75826e-37,-0.0966492,-0.00824007,9.98745,-1.2344,0.103084,-1.01001,-4.10718,-0.590332
68,-1.75919e-37,-0.05836,-0.00264655,9.98943,-1.12785,0.220372,3.0415,-4.08472,-0.587402
69,-1.76013e-37,-0.0569581,0.00802549,10.0299,-1.20008,0.176777,5.29028,-4.11084,-0.590332
70,-1.76106e-37,-0.0791605,0.0138264,10.0079,-1.24593,0.165481,6.2749,-4.10181,-0.585938
71,-1.762e-37,-0.0665856,0.00821859,10.0207,-1.26396,0.177084,3.01538,-4.09644,-0.594238
72,-1.76293e-37,-0.0594759,0.00303996,9.99691,-1.21639,0.150829,-7.73486,-4.09937,-0.586914
73,-1.76386e-37,-0.0523518,-0.0134831,10.0059,-1.14265,0.168759,-3.26636,-4.10645,-0.590088
74,-1.7648e-37,-0.0618006,-0.00806841,10.0224,-1.25087,0.226391,-3.13745,-4.09326,-0.588867
75,-1.76573e-37,-0.0602913,-0.00417011,10.006,-1.26396,0.158693,-6.77661,-4.10962,-0.589111
76,-1.76667e-37,-0.0568651,0.0162441,9.98621,-1.29162,0.0839763,-5.87183,-4.08838,-0.593262
77,-1.7676e-37,-0.0588321,-0.000536463,10.0043,-1.2884,0.0671989,-6.11157,-4.09717,-0.587402
78,-1.76853e-37,-0.0644616,0.00842609,10.0136,-1.19183,0.201981,-7.28369,-4.09155,-0.592041
79,-1.76947e-37,-0.0756842,0.0108723,9.97519,-1.2095,0.0389721,4.91675,-4.07495,-0.591064
80,-1.7704e-37,-0.0868212,0.00645902,10.0301,-1.12936,0.0281116,-3.28174,-4.09473,-0.587891
81,-1.77134e-37,-0.0831375,0.0146419,9.98445,-1.28525,0.180568,5.6731,-4.09106,-0.59082
82,-1.77227e-37,-0.0614212,-0.000228908,10.0008,-1.22287,0.0969627,-6.49585,-4.09229,-0.586182
83,-1.77321e-37,-0.0579311,0.00521448,10.0082,-1.1313,0.307051,-5.76514,-4.08984,-0.592529
84,-1.77414e-37,-0.0711779,-0.00751764,10.0117,-1.08028,0.0965272,1.56641,-4.11108,-0.588623
85,-1.77507e-37,-0.0786028,-0.0143772,9.99692,-1.21483,0.236227,0.325439,-4.09351,-0.587891
86,-1.77601e-37,-0.0496337,-0.00854047,9.98428,-1.12631,0.175137,-1.26611,-4.11182,-0.5896
87,-1.77694e-37,-0.0590324,-0.0120311,9.98423,-1.18381,0.19755,6.05615,-4.12622,-0.589844
88,-1.77788e-37,-0.0521085,0.0172455,9.99389,-1.27226,0.0969627,4.78345,-4.15527,-0.592285
89,-1.77881e-37,-0.065048,0.00617291,9.99555,-1.31337,0.193733,-4.14282,-4.14917,-0.585205
90,-1.77974e-37,-0.0524804,0.00450629,9.98277,-1.22457,0.0963992,6.33789,-4.10986,-0.593018
91,-1.78068e-37,-0.0471301,0.00469942,9.97549,-1.18061,0.23031,5.11621,-4.12964,-0.589111
92,-1.78161e-37,-0.0750192,0.00970644,10.0067,-1.10518,0.271831,-6.24634,-4.11401,-0.589844
93,-1.78255e-37,-0.0644042,0.0101785,9.9939,-1.08714,0.32142,-2.64087,-4.10352,-0.593262
94,-1.78348e-37,-0.0703124,0.00144487,9.98279,-1.15746,0.236535,-2.50903,-4.09229,-0.589844
95,-1.78442e-37,-0.0559996,0.00545762,9.97376,-1.0458,0.115251,6.83008,-4.09351,-0.591064
96,-1.78535e-37,-0.0599194,0.0126605,9.99769,-1.10018,0.273829,-2.06299,-4.10425,-0.588623
97,-1.78628e-37,-0.067623,-0.0075534,10.0138,-1.15256,0.201571,-6.88794,-4.10522,-0.591309
98,-1.78722e-37,-0.0458639,-0.00678091,9.98281,-1.12787,0.112767,-4.4624,-4.1145,-0.589111
99,-1.78815e-37,-0.0514576,-0.0173313,9.96797,-1.07211,0.149472,7.58203,-4.09814,-0.588135
100,-1.78909e-37,-0.0609279,-0.0120812,9.99555,-1.05902,0.117787,-0.423828,-4.11377,-0.591309
101,-1.79002e-37,-0.0483389,0.00847612,9.99048,-1.05259,0.229875,1.12842,-4.09741,-0.586182
102,-1.79095e-37,-0.0615359,-0.00278246,10.0196,-1.0935,0.168785,-4.68091,-4.10767,-0.592773
103,-1.79189e-37,-0.067251,0.023912,9.97427,-1.0561,0.287917,6.51489,-4.12427,-0.591064
104,-1.79282e-37,-0.0639893,0.0131326,9.97962,-1.09196,0.160051,0.375488,-4.12305,-0.589844
105,-1.79376e-37,-0.0697331,0.020779,9.97428,-1.1082,0.104519,1.78223,-4.11597,-0.591553
106,-1.79469e-37,-0.0625516,0.00983516,9.98511,-1.17224,0.165071,4.66724,-4.11572,-0.587646
107,-1.79563e-37,-0.0517723,-0.00845466,9.99215,-1.10185,0.204312,4.67529,-4.12158,-0.596436
108,-1.79656e-37,-0.0594117,-0.0251708,10.0156,-1.12813,0.276903,5.65454,-4.10864,-0.586182
109,-1.79749e-37,-0.0617649,0.0117235,10.0109,-1.17231,0.161254,2.92017,-4.13501,-0.591553
110,-1.79843e-37,-0.0527165,-0.0116019,9.99402,-0.980257,0.151803,7.97949,-4.09009,-0.586182
111,-1.79936e-37,-0.0730949,-0.00756771,9.99224,-1.11307,0.128238,-2.65088,-4.0957,-0.589355
112,-1.8003e-37,-0.0549982,-0.00180252,9.99243,-1.22485,0.223984,7.13232,-4.11548,-0.592041
113,-1.80123e-37,-0.0810131,-0.00399844,10.0088,-1.09368,0.27552,1.55591,-4.10327,-0.585938
114,-1.80216e-37,-0.0795827,0.0168593,9.98548,-1.01799,0.166352,6.19922,-4.09253,-0.59375
115,-1.8031e-37,-0.0616718,0.0275313,10.0224,-1.21983,0.249342,6.42603,-4.09668,-0.589844
116,-1.80403e-37,-0.0490541,-0.00122316,9.99991,-0.962609,0.268578,-2.30615,-4.11865,-0.586914
117,-1.80497e-37,-0.0677231,-0.000593686,9.98708,-1.19859,0.222319,6.55688,-4.1167,-0.593262
118,-1.8059e-37,-0.0608349,0.021294,9.99675,-1.12987,0.30472,-0.796143,-4.11011,-0.586182
119,-1.80684e-37,-0.0556992,-0.00417726,9.99809,-1.08707,0.247754,1.60596,-4.10156,-0.594238
120,-1.80777e-37,-0.0799976,-0.0048639,10.0383,-1.15912,0.216581,4.32983,-4.09863,-0.588867
121,-1.8087e-37,-0.0545476,0.00568651,9.98372,-1.08668,0.0479114,-5.11377,-4.0979,-0.591797
122,-1.80964e-37,-0.06743,-0.0202855,10.0088,-1.1247,0.130543,3.6748,-4.1189,-0.588867
123,-1.81057e-37,-0.0768859,0.018626,9.99499,-1.08218,0.189763,-7.34448,-4.1167,-0.58374
124,-1.81151e-37,-0.0478525,0.0115661,10.0005,-1.10005,0.145809,-5.3623,-4.1084,-0.593994
125,-1.81244e-37,-0.051579,-0.0134903,9.98344,-1.09024,0.192196,-3.85498,-4.0979,-0.589355
126,-1.81337e-37,-0.0574731,-0.00459928,10.0056,-1.04429,0.117736,0.679199,-4.11475,-0.591309
127,-1.81431e-37,-0.0631739,0.0067952,10.0004,-1.0886,0.157259,7.96411,-4.10962,-0.589844
128,-1.81524e-37,-0.067158,0.0176747,10.0153,-1.08566,0.206643,4.85742,-4.16357,-0.590576
129,-1.81618e-37,-0.0397841,-0.00680235,9.9801,-1.05928,0.217401,6.45947,-4.12207,-0.589844
130,-1.81711e-37,-0.0529811,0.0156504,9.96961,-1.01835,0.154159,-5.04077,-4.17627,-0.588623
131,-1.81805e-37,-0.0623871,-0.00866209,10.0057,-1.15587,0.156746,0.317627,-4.1189,-0.591797
132,-1.81898e-37,-0.0663213,0.00253929,10.0023,-1.05408,0.158027,-2.38989,-4.09497,-0.587646
133,-1.81991e-37,-0.055556,-0.00269665,10.0059,-1.12329,0.252031,-1.2605,-4.11572,-0.590576
134,-1.82085e-37,-0.0651266,0.00286829,10.0097,-1.0395,0.201776,-5.67871,-4.10693,-0.5896
135,-1.82178e-37,-0.061772,0.0126105,9.99901,-1.07887,0.20006,0.301758,-4.10718,-0.590576
136,-1.82272e-37,-0.0492044,-0.00181682,10.0024,-1.12329,0.255182,-7.97314,-4.11768,-0.590332
137,-1.82365e-37,-0.0734667,0.00899825,10.0136,-1.06763,0.291349,-0.785889,-4.11792,-0.589355
138,-1.82458e-37,-0.0775654,0.013011,10.0101,-1.05244,0.163022,-7.95117,-4.09448,-0.592773
139,-1.82552e-37,-0.0741464,0.0227389,9.99937,-1.17872,0.109181,1.10132,-4.1167,-0.588379
140,-1.82645e-37,-0.0779658,0.0172526,10.0029,-1.07562,0.26284,-6.84497,-4.09766,-0.587891
141,-1.82739e-37,-0.0636175,0.0162942,9.98101,-1.00851,0.222344,2.52661,-4.12329,-0.590088
142,-1.82832e-37,-0.0601411,-0.00680951,9.96767,-1.11645,0.168887,3.70972,-4.10547,-0.586426
143,-1.82926e-37,-0.0568222,0.00970641,9.97546,-1.15933,0.227288,4.03906,-4.1167,-0.593506
144,-1.83019e-37,-0.0682882,-0.00428455,10.0264,-1.07887,0.238123,-3.38037,-4.1001,-0.586914
145,-1.83112e-37,-0.0574447,0.00120887,9.96616,-1.10336,0.235203,3.52417,-4.09277,-0.589111
146,-1.83206e-37,-0.0560709,-0.0106077,10.008,-1.09839,0.190736,-1.86475,-4.09546,-0.589844
147,-1.83299e-37,-0.0691465,0.0142914,9.97202,-1.15098,0.139918,7.84009,-4.12671,-0.584961
148,-1.83393e-37,-0.073145,0.0267874,9.99069,-1.05134,0.272395,1.36304,-4.14722,-0.594971
149,-1.83486e-37,-0.0698976,0.0157363,10.0051,-1.13276,0.142812,1.29175,-4.10205,-0.585693
150,-1.83579e-37,-0.0608922,0.00886237,9.99586,-1.11004,0.242989,1.34229,-4.10034,-0.591553
151,-1.83673e-37,-0.0703698,0.00927728,9.98672,-1.06937,0.334355,3.03369,-4.11011,-0.58667
152,-1.83766e-37,-0.0561927,0.00601554,9.9849,-1.05103,0.317834,-4.03613,-4.08813,-0.591064
153,-1.8386e-37,-0.0769145,0.00362649,10.0141,-1.12836,0.301108,-7.4502,-4.11621,-0.594971
154,-1.83953e-37,-0.0608564,0.00783236,10.0033,-1.12513,0.304054,5.25317,-4.12231,-0.584717
155,-1.84047e-37,-0.0686099,0.0043346,10.0032,-1.00341,0.190429,6.43848,-4.10645,-0.5896
156,-1.8414e-37,-0.0614501,-0.000121589,9.97939,-1.08881,0.15608,-6.30713,-4.13916,-0.584717
157,-1.84233e-37,-0.0563431,0.0199493,9.99282,-1.1019,0.207667,0.840332,-4.11743,-0.591309
158,-1.84327e-37,-0.0602342,0.00740322,9.99067,-1.07736,0.230746,1.25732,-4.11548,-0.589355
159,-1.8442e-37,-0.0698761,0.0219092,10.0039,-1.10477,0.117095,5.47827,-4.09424,-0.588135
160,-1.84514e-37,-0.0645401,0.0052788,10.0181,-1.05308,0.338889,6.92651,-4.11841,-0.592773
161,-1.84607e-37,-0.0464864,-0.0249062,9.9973,-1.10036,0.232052,4.93677,-4.12085,-0.586182
162,-1.847e-37,-0.057974,-0.0067737,10.0106,-1.13755,0.180388,6.18896,-4.08472,-0.592773
163,-1.84794e-37,-0.0893032,-0.00634457,9.99588,-1.12639,0.20841,3.8623,-4.10229,-0.58667
164,-1.84887e-37,-0.0677732,0.0120025,10.0057,-1.06752,0.260689,2.29761,-4.10864,-0.589844
165,-1.84981e-37,-0.088495,0.0336756,10.0227,-1.10525,0.237252,-4.3042,-4.11523,-0.591797
166,-1.85074e-37,-0.0666502,0.00899112,10.0002,-0.977465,0.235408,-2.66528,-4.12476,-0.58667
167,-1.85168e-37,-0.0633241,0.00759632,10.0002,-1.08533,0.180644,-1.95996,-4.10278,-0.590332
168,-1.85261e-37,-0.0654056,0.000422018,10.0037,-1.12149,0.156695,-2.72559,-4.11865,-0.58667
169,-1.85354e-37,-0.0527594,-0.0139767,10.0034,-1.04304,0.197012,3.55884,-4.14185,-0.591553
170,-1.85448e-37,-0.0696973,0.0116091,10.0133,-0.926569,0.23592,-1.88647,-4.11865,-0.592285
171,-1.85541e-37,-0.0479596,0.00730299,9.99312,-0.967193,0.263225,0.256836,-4.08154,-0.585938
172,-1.85635e-37,-0.077687,0.0186618,9.9897,-1.0395,0.207078,6.64185,-4.10156,-0.591797
173,-1.85728e-37,-0.063367,0.0151783,9.99704,-1.08868,0.248394,-4.08105,-4.09375,-0.586426
174,-1.85821e-37,-0.0910843,0.0159866,9.97317,-0.993653,0.17652,2.89087,-4.12109,-0.590576
175,-1.85915e-37,-0.0694898,0.0196059,9.99174,-1.08753,0.295447,5.96118,-4.13354,-0.590332
176,-1.86008e-37,-0.047881,0.00537891,9.98964,-1.01315,0.187893,2.59326,-4.09448,-0.590576
177,-1.86102e-37,-0.0481887,-0.0114946,10.0148,-1.08671,0.153826,6.61499,-4.0896,-0.591064
178,-1.86195e-37,-0.0718504,-0.0260864,9.95569,-1.06747,0.218067,7.22754,-4.10815,-0.584473
179,-1.86289e-37,-0.0596905,-0.00128751,9.99501,-1.19034,0.193247,3.13428,-4.10669,-0.591064
180,-1.86382e-37,-0.0564717,0.0262867,9.99593,-1.03141,0.314786,2.20752,-4.08862,-0.58667
181,-1.86475e-37,-0.0477667,0.0324954,9.98523,-1.15587,0.178646,1.08618,-4.10498,-0.591797
182,-1.86569e-37,-0.0700478,0.022746,10.005,-1.1364,0.319115,5.09595,-4.09131,-0.589111
183,-1.86662e-37,-0.0741178,0.0480099,9.9637,-1.15441,0.279003,-0.0751953,-4.09985,-0.586914
184,-1.86756e-37,-0.0891602,0.00461358,10.0063,-1.10472,0.159052,5.40479,-4.08691,-0.5896
185,-1.86849e-37,-0.0710707,0.0107722,9.99563,-1.12311,0.120118,6.14819,-4.12451,-0.589355
186,-1.86942e-37,-0.0529382,-0.00408427,10.0118,-1.08179,0.127162,-4.97314,-4.09351,-0.59082
187,-1.87036e-37,-0.0622655,-0.00748903,10.0099,-1.06881,0.233179,1.41577,-4.08496,-0.591064
188,-1.87129e-37,-0.0736817,-0.000193107,10.0174,-1.18658,0.102803,-5.08423,-4.08911,-0.589111
189,-1.87223e-37,-0.0574442,0.001359,10.0323,-1.1605,0.18026,1.15601,-4.08667,-0.593018
190,-1.87316e-37,-0.046608,0.0042059,10.0068,-1.0218,0.271857,3.98364,-4.1145,-0.584961
191,-1.8741e-37,-0.0653697,0.0155503,10.0035,-1.16281,0.273009,-7.13574,-4.11572,-0.592285
192,-1.87503e-37,-0.0602627,0.0215587,9.99276,-1.13461,0.205055,0.243896,-4.10303,-0.587402
193,-1.87596e-37,-0.0516292,0.0224313,10.0295,-1.11504,0.206233,5.81567,-4.11133,-0.588135
194,-1.8769e-37,-0.058918,0.0190194,9.97081,-1.10177,0.147039,-1.94434,-4.1145,-0.588867
195,-1.87783e-37,-0.0538681,0.023633,10.0058,-1.12987,0.217401,1.15161,-4.11499,-0.584229
196,-1.87877e-37,-0.0686244,0.00426309,9.98503,-1.10869,0.263225,-7.71118,-4.11694,-0.593994
197,-1.8797e-37,-0.0853836,0.00877655,9.96316,-1.10008,0.0972444,-3.82129,-4.12329,-0.587891
198,-1.88063e-37,-0.0673513,-0.00680948,10.0013,-1.18228,0.207565,7.33813,-4.11255,-0.59375
199,-1.88235e-37,-0.0587535,0.0298274,10.0063,-1.03599,0.113433,-1.48486,-4.10498,-0.587402
200,-1.88421e-37,-0.0698761,0.0245915,10.0061,-1.09724,0.246652,-5.66089,-4.12061,-0.589844
201,-1.88608e-37,-0.0810989,0.010436,9.99645,-1.12992,0.212099,-5.18848,-4.12085,-0.592529
202,-1.88795e-37,-0.0559424,0.0116663,10.0242,-1.11168,0.173524,-0.795898,-4.11011,-0.585693
203,-1.88982e-37,-0.0614073,-0.0034405,9.98885,-1.12493,0.164251,-0.0830078,-4.12524,-0.591064
204,-1.89169e-37,-0.0434964,0.0130825,9.99691,-1.1417,0.307025,4.93896,-4.1228,-0.583252
205,-1.89356e-37,-0.0566791,-0.00341191,9.99998,-1.1426,0.196295,-0.308105,-4.09082,-0.587891
206,-1.89542e-37,-0.0826869,0.00946321,9.99852,-1.14936,0.120067,4.51929,-4.1228,-0.590576
207,-1.89729e-37,-0.082973,0.0318373,9.99202,-1.11985,0.151752,-3.51465,-4.11694,-0.585449
208,-1.89916e-37,-0.0848399,0.00469226,9.98746,-1.16568,0.200675,-4.48853,-4.09497,-0.592529
209,-1.90103e-37,-0.0981726,0.0205787,10.0063,-1.18199,0.145758,6.69995,-4.10571,-0.585938
210,-1.9029e-37,-0.070806,0.0102071,9.99702,-1.20338,0.148806,0.827148,-4.10767,-0.594727
211,-1.90477e-37,-0.0508783,-0.00279673,10.0077,-1.11852,0.27534,2.55835,-4.10791,-0.589844
212,-1.90663e-37,-0.0694827,0.00559352,9.9805,-1.05902,0.2132,-4.13892,-4.0896,-0.591309
213,-1.9085e-37,-0.0591109,0.00228174,10.0318,-1.14739,0.107003,-1.073,-4.09912,-0.591309
214,-1.91037e-37,-0.0591111,0.00153071,10.0062,-1.10497,0.231207,-0.10083,-4.08887,-0.586182
215,-1.91224e-37,-0.054004,0.012961,10.0012,-1.1614,0.295319,1.74023,-4.12354,-0.592773
216,-1.91411e-37,-0.07263,0.0137835,9.97918,-1.20379,0.288352,-1.01245,-4.10522,-0.588379
217,-1.91598e-37,-0.0731948,0.0149566,9.99944,-1.10638,0.160742,-5.39917,-4.08862,-0.591064
218,-1.91784e-37,-0.0624301,0.0172813,9.99415,-1.11839,0.197652,0.470703,-4.11572,-0.59082
219,-1.91971e-37,-0.0793536,0.0203641,10.0125,-1.08402,0.137203,-1.88867,-4.14795,-0.587158
220,-1.92158e-37,-0.0702838,0.00427025,10.0102,-1.15415,0.119298,7.23022,-4.11011,-0.593994
221,-1.92345e-37,-0.0668505,0.000379101,10.0212,-1.11688,0.315708,6.73682,-4.09424,-0.585938
222,-1.92532e-37,-0.0673154,-0.00694541,10.0265,-1.09526,0.133489,-4.50757,-4.12012,-0.596191
223,-1.92719e-37,-0.0617579,-0.0145989,9.99327,-1.1823,0.281283,5.51709,-4.09229,-0.589844
224,-1.92905e-37,-0.0694899,0.000801118,9.97555,-1.11975,0.17255,-5.79199,-4.10059,-0.591064
225,-1.93092e-37,-0.0809485,0.0187261,9.98905,-1.1936,0.225469,3.89087,-4.09253,-0.591309
226,-1.93279e-37,-0.0777085,0.0163943,10.0055,-1.13632,0.240069,-7.21509,-4.09595,-0.588135
227,-1.93466e-37,-0.0580596,0.0312007,10.0099,-1.16289,0.246371,6.87646,-4.12012,-0.592773
228,-1.93653e-37,-0.0620652,0.0257574,10.0116,-1.15279,0.300109,-1.46533,-4.08838,-0.58667
229,-1.9384e-37,-0.0643041,0.0204071,10.0115,-1.13947,0.0887149,-0.305664,-4.12402,-0.589844
230,-1.94026e-37,-0.0606347,0.0101141,9.99834,-1.16852,0.00754339,0.151367,-4.1123,-0.590088
231,-1.94213e-37,-0.0753552,0.0155002,10.0022,-1.10198,0.219783,-2.47974,-4.1062,-0.586914
232,-1.944e-37,-0.044412,0.0150281,9.97861,-1.16271,0.197499,-2.15283,-4.11548,-0.593018
233,-1.94587e-37,-0.0648763,0.0224885,9.97518,-1.11855,0.277236,1.34766,-4.10425,-0.585449
234,-1.94774e-37,-0.069075,0.0238547,9.99176,-1.09662,0.170501,-2.30249,-4.09033,-0.590332
235,-1.94961e-37,-0.062108,0.0120668,10.0189,-1.14432,0.0991655,2.04395,-4.11523,-0.588135
236,-1.95147e-37,-0.0658778,0.00489257,10.0187,-1.248,0.227006,-5.46216,-4.11182,-0.589111
237,-1.95334e-37,-0.0642683,0.00183828,10.004,-1.0643,0.233205,7.53662,-4.10376,-0.592529
238,-1.95521e-37,-0.0515935,-0.00225315,9.97828,-1.04614,0.237303,-0.816895,-4.09448,-0.587646
239,-1.95708e-37,-0.0684955,0.00137332,9.98387,-1.14929,0.152546,1.29443,-4.104,-0.593018
240,-1.95895e-37,-0.079747,0.00511428,9.98402,-1.16409,0.143786,1.7749,-4.11011,-0.588623
241,-1.96082e-37,-0.0818142,0.00517151,9.98591,-1.15098,0.180516,-7.36279,-4.10303,-0.5896
242,-1.96268e-37,-0.08793,0.0222382,10.0196,-1.04319,0.272241,6.96606,-4.10889,-0.588379
243,-1.96455e-37,-0.0808774,0.0273024,9.99428,-1.09544,0.253235,-5.90015,-4.09814,-0.587402
244,-1.96642e-37,-0.0611567,0.0293624,9.99824,-1.03843,0.23113,-7.8855,-4.13574,-0.595947
245,-1.96829e-37,-0.0466938,0.0021101,10.0028,-1.12844,0.176597,6.80566,-4.13745,-0.587158
246,-1.97016e-37,-0.0561214,-0.00545759,10.0116,-1.13463,0.182079,-3.63574,-4.10474,-0.592041
247,-1.97203e-37,-0.0524302,-0.0282037,9.99061,-1.16919,0.156285,-4.61548,-4.11768,-0.587402
248,-1.97389e-37,-0.0564717,-0.00607276,9.98974,-1.21581,0.300954,-2.7439,-4.13623,-0.588623
249,-1.97576e-37,-0.0479455,0.0102214,9.99789,-1.09501,0.165558,-4.39917,-4.09131,-0.591797
250,-1.97763e-37,-0.0702551,0.0155431,10.0035,-1.11514,0.134155,-6.62891,-4.13379,-0.5896
251,-1.9795e-37,-0.0778515,0.0249277,10.0021,-1.20016,0.157259,-7.46582,-4.10449,-0.593262
252,-1.98137e-37,-0.0707488,0.0213226,10.0039,-1.02644,0.190762,-7.15161,-4.104,-0.588379
253,-1.98324e-37,-0.0709777,0.00671652,10.0107,-1.11834,0.253696,1.47876,-4.09302,-0.59082
254,-1.9851e-37,-0.0712852,0.0227174,9.98395,-1.16903,0.163816,3.76221,-4.10571,-0.591309
255,-1.98697e-37,-0.0730089,0.000150188,9.95739,-1.06755,0.184973,3.45581,-4.11206,-0.586426
256,-1.98884e-37,-0.0404638,-0.00781803,9.98483,-1.1364,0.188149,1.82739,-4.11035,-0.590576
257,-1.99071e-37,-0.0519656,-0.00532883,10.0143,-1.07226,0.209819,-5.08008,-4.09204,-0.589111
258,-1.99258e-37,-0.0594757,-0.00615865,9.9959,-1.16957,0.336917,7.36841,-4.09521,-0.591309
259,-1.99445e-37,-0.0656559,0.000443476,10.0146,-1.20054,0.265607,-6.94263,-4.10303,-0.590088
260,-1.99631e-37,-0.0753552,0.0283825,10.0048,-1.16266,0.248164,-0.444824,-4.09814,-0.588135
261,-1.99818e-37,-0.0793751,0.0266443,10.0048,-1.08438,0.356793,-5.79761,-4.09668,-0.591553
262,-2.00005e-37,-0.0688034,0.0315369,9.98496,-1.13348,0.290171,0.457764,-4.10596,-0.586426
263,-2.00192e-37,-0.071135,0.0332822,9.99059,-1.19713,0.247933,-4.06348,-4.09888,-0.59375
264,-2.00379e-37,-0.0677946,0.0202783,9.99746,-1.19898,0.162919,-1.63501,-4.14136,-0.585693
265,-2.00566e-37,-0.0695757,0.001123,9.97651,-1.1574,0.136332,0.399658,-4.10181,-0.591064
266,-2.00752e-37,-0.0663998,0.00148779,10.0133,-1.26376,0.0282397,-2.46948,-4.11401,-0.591309
267,-2.00939e-37,-0.0680164,-0.0045349,9.98376,-1.18896,0.0850777,4.54053,-4.16211,-0.589355
268,-2.01126e-37,-0.0754983,0.0108008,9.96981,-1.29559,0.133053,6.4939,-4.13989,-0.593506
269,-2.01313e-37,-0.0629593,0.00844035,9.9827,-1.25927,0.143043,-1.57764,-4.11426,-0.584229
270,-2.015e-37,-0.0491615,0.000901258,10.0705,-1.46557,0.174395,-1.25439,-4.08936,-0.591309
271,-2.01687e-37,-0.0731806,0.00647331,10.0579,-1.14959,0.145835,1.42627,-4.12402,-0.587646
272,-2.01873e-37,-0.0603699,0.00614427,10.0305,-1.02675,0.217734,3.6167,-4.11475,-0.59082
273,-2.0206e-37,-0.0674012,0.0121956,9.94468,-1.08884,0.23907,-5.75977,-4.09375,-0.591064
274,-2.02247e-37,-0.0753123,-0.0081757,9.99326,-1.23637,0.206899,-7.99878,-4.09814,-0.587158
275,-2.02434e-37,-0.0556205,-0.0127464,10.0171,-1.28542,0.0445047,-6.36011,-4.13892,-0.592529
276,-2.02621e-37,-0.0756698,-0.00219594,9.98269,-1.25658,0.227006,-0.442383,-4.13135,-0.585449
277,-2.02808e-37,-0.070713,0.0292909,9.97695,-1.29301,-0.0273304,7.86108,-4.11108,-0.590576
278,-2.02994e-37,-0.0982944,0.0455779,9.97577,-1.39511,0.117582,2.49536,-4.09985,-0.588867
279,-2.03181e-37,-0.0692322,0.0183685,10.0096,-1.29657,0.00961814,-4.29883,-4.11914,-0.586426
280,-2.03368e-37,-0.0544975,0.00179536,10.0127,-1.35881,0.0213751,3.30005,-4.11328,-0.594727
281,-2.03555e-37,-0.0598263,-0.00476379,9.99231,-1.32438,0.0131017,2.98853,-4.11572,-0.587402
282,-2.03742e-37,-0.0579453,-0.0159079,9.99372,-1.31839,0.157745,2.19678,-4.11206,-0.590088
283,-2.03928e-37,-0.0471444,-0.000143057,9.97081,-1.58439,-0.121437,-2.32397,-4.10498,-0.589111
284,-2.04115e-37,-0.0421589,0.00488539,10.0482,-1.23763,0.00416231,7.4231,-4.12866,-0.589355
285,-2.04302e-37,-0.0784667,0.0105576,10.0006,-1.37075,0.109539,5.2981,-4.1167,-0.59375
286,-2.04489e-37,-0.0967708,0.00371948,9.98374,-1.41941,0.0100024,-2.1604,-4.10962,-0.582764
287,-2.04676e-37,-0.0874435,0.00673083,9.95656,-1.54766,-0.0247433,-0.553223,-4.1582,-0.592529
288,-2.04863e-37,-0.0769431,-0.0122528,10.0383,-1.57207,0.028752,-6.93018,-4.11279,-0.587646
289,-2.05049e-37,-0.0692897,-0.0140625,9.99258,-1.47804,-0.0128071,7.66675,-4.09155,-0.589844
290,-2.05236e-37,-0.0694541,0.0193484,9.97782,-1.55932,0.0904054,1.31494,-4.11963,-0.586914
291,-2.05423e-37,-0.080999,-0.0104806,10.0407,-1.70645,0.0994216,3.20776,-4.09131,-0.587891
292,-2.0561e-37,-0.0366798,-0.027095,10.0108,-1.65829,-0.10863,-0.225586,-4.10498,-0.594238
293,-2.05797e-37,-0.0248777,-0.0157792,10.1418,-1.35074,0.0548273,2.76758,-4.10693,-0.587158
294,-2.05984e-37,-0.024334,0.0153572,10.0298,-0.768939,0.179876,6.10864,-4.09521,-0.592285
295,-2.0617e-37,-0.0627231,0.0354208,9.96638,-0.8757,0.247472,2.78711,-4.09033,-0.588623
296,-2.06357e-37,-0.0866138,0.0143844,9.95419,-0.910253,0.234614,6.53369,-4.09912,-0.589844
297,-2.06544e-37,-0.083116,-0.00509998,9.95148,-1.16171,0.297368,4.82544,-4.11646,-0.590576
298,-2.06731e-37,-0.0710422,-0.00670935,9.98824,-1.07892,0.142915,3.60645,-4.10693,-0.586426
299,-2.06918e-37,-0.0548552,-0.00878369,10.0012,-1.12265,0.300775,-4.25854,-4.14087,-0.594482
300,-2.07105e-37,-0.0572013,0.0201353,9.97705,-1.00556,0.221294,-4.62085,-4.11377,-0.583984
301,-2.07291e-37,-0.0795968,0.0235901,9.98446,-1.15441,0.223062,5.41162,-4.0918,-0.589111
302,-2.07478e-37,-0.086907,-0.00116591,9.96854,-1.32656,0.156798,5.22974,-4.10474,-0.591064
303,-2.07665e-37,-0.0745683,0.020593,9.97354,-1.42374,0.18569,1.16187,-4.1228,-0.584961
304,-2.07852e-37,-0.0605989,0.0062945,10.0354,-1.22467,0.094555,-4.05029,-4.10864,-0.593262
305,-2.08039e-37,-0.0241265,0.0144416,10.027,-1.20564,0.242247,1.45801,-4.10864,-0.588135
306,-2.08226e-37,-0.0610352,0.00505706,10.0263,-1.07262,0.21361,1.24463,-4.10571,-0.592529
307,-2.08412e-37,-0.0573157,0.0137048,9.97187,-1.15146,0.128289,-1.1604,-4.14355,-0.587891
308,-2.08599e-37,-0.0537179,-0.00266086,9.97297,-1.21837,0.168964,4.49341,-4.10327,-0.588379
309,-2.08786e-37,-0.0652125,-0.0198277,10.0197,-1.25169,0.232872,-1.15259,-4.11816,-0.59375
310,-2.08973e-37,-0.052509,-0.00459213,9.97674,-1.17459,0.250264,-0.426514,-4.11182,-0.589844
311,-2.0916e-37,-0.049605,0.00671652,10.0086,-1.07977,0.333177,2.34741,-4.10693,-0.591553
312,-2.09347e-37,-0.0649049,0.0310934,10.0007,-1.09734,0.201059,-1.78613,-4.11523,-0.590088
313,-2.09533e-37,-0.0648975,0.00814707,9.98856,-1.1226,0.0907384,6.82642,-4.09058,-0.588867
314,-2.0972e-37,-0.0706272,0.00190981,10.0048,-1.18402,0.207591,5.48071,-4.09619,-0.588867
315,-2.09907e-37,-0.0708276,0.00858344,9.98506,-1.17892,0.157925,-7.83789,-4.10083,-0.586426
316,-2.10094e-37,-0.0525021,-0.00102282,9.96463,-1.09219,0.224727,7.25,-4.09351,-0.59082
317,-2.10281e-37,-0.052602,-0.0303209,9.96862,-1.22526,0.156772,5.72827,-4.12451,-0.587158
318,-2.10468e-37,-0.0531385,-0.0205,9.99124,-1.10725,0.175317,5.00562,-4.12524,-0.588867
319,-2.10654e-37,-0.0646832,0.00106577,10.0016,-1.28578,0.235228,6.31665,-4.09424,-0.589355
320,-2.10841e-37,-0.0833236,0.0127249,9.98565,-1.20866,0.127802,-1.51685,-4.12036,-0.58667
321,-2.11028e-37,-0.0615502,0.0110726,9.98768,-1.12895,0.304771,-6.25171,-4.11011,-0.594238
322,-2.11215e-37,-0.0748903,0.0145918,9.99151,-1.1708,0.238763,1.41943,-4.08789,-0.587891
323,-2.11402e-37,-0.0497911,0.00805414,10.0171,-1.181,0.241401,-2.48535,-4.10229,-0.591309
324,-2.11589e-37,-0.0298561,0.00743182,10.0009,-1.16091,0.14271,-3.84448,-4.10571,-0.586426
325,-2.11775e-37,-0.0739674,-0.0157935,10.0176,-1.08387,0.154697,1.81934,-4.10449,-0.588867
326,-2.11962e-37,-0.0482817,-0.0133687,9.98324,-1.07416,0.153878,2.66919,-4.1123,-0.588867
327,-2.12149e-37,-0.0448339,-0.0206861,9.98845,-1.14516,0.265581,2.5061,-4.10767,-0.587646
328,-2.12336e-37,-0.0599551,-0.00359788,9.97836,-1.12008,0.199471,3.07104,-4.09863,-0.595459
329,-2.12523e-37,-0.0424165,0.0151355,10.0108,-1.10034,0.196653,-6.4812,-4.09546,-0.58667
330,-2.1271e-37,-0.0680235,0.00366941,9.98622,-1.20484,0.402976,2.19189,-4.10815,-0.594482
331,-2.12896e-37,-0.0763137,-0.00256787,10.0317,-1.14601,0.111563,4.70703,-4.1062,-0.589844
332,-2.13083e-37,-0.0668362,-0.00287544,9.97689,-1.23207,0.334483,6.40747,-4.09155,-0.591553
333,-2.1327e-37,-0.0584387,0.00525019,9.9977,-1.24429,0.152597,-1.35718,-4.09082,-0.593018
334,-2.13457e-37,-0.0476022,0.00405566,9.98865,-1.20049,0.132746,2.94141,-4.11938,-0.586182
335,-2.13644e-37,-0.062802,0.00374809,10.0253,-1.22503,0.207437,-7.16211,-4.09619,-0.593262
336,-2.13831e-37,-0.0572086,-0.00707414,9.99181,-1.16824,0.247882,-3.30371,-4.11792,-0.587402
337,-2.14017e-37,-0.0778585,0.00758914,9.99072,-1.16939,0.185101,-1.32373,-4.10767,-0.594238
338,-2.14204e-37,-0.0910342,-0.0045349,10.0102,-1.1532,0.16689,-7.80664,-4.12427,-0.593018
339,-2.14391e-37,-0.0640251,0.0238261,10.003,-1.19288,0.266068,6.29297,-4.11548,-0.589111
340,-2.14578e-37,-0.0498625,0.0215873,10.0141,-1.10226,0.174497,4.93115,-4.11694,-0.592773
341,-2.14765e-37,-0.0645115,0.0137048,9.99344,-1.12867,0.274982,0.814209,-4.0979,-0.587402
342,-2.14952e-37,-0.0705056,-0.00421302,10.0199,-1.19178,0.120989,-5.1189,-4.09399,-0.591309
343,-2.15138e-37,-0.0666432,-0.0191481,9.99536,-1.12367,0.192632,-6.76904,-4.11548,-0.585693
344,-2.15325e-37,-0.0813636,-0.0234041,9.9749,-1.15735,0.361148,5.4563,-4.11743,-0.588623
345,-2.15512e-37,-0.0840389,-0.00381245,9.98712,-1.15087,0.098602,-2.32422,-4.10498,-0.593262
346,-2.15699e-37,-0.0477738,-0.0104002,10.0147,-1.19111,0.253696,-0.95459,-4.10938,-0.585938
347,-2.15886e-37,-0.044319,-0.003276,9.98956,-1.15354,0.176802,7.60767,-4.14893,-0.591309
348,-2.16073e-37,-0.0670722,0.0149208,10.0217,-1.08177,0.194963,1.18384,-4.22461,-0.588867
349,-2.16259e-37,-0.0669004,-0.0149208,10.0035,-1.16317,0.183155,1.89844,-4.12427,-0.5896
350,-2.16446e-37,-0.065463,-0.00186687,10.0026,-1.11506,0.13605,6.96631,-4.10889,-0.590088
351,-2.16633e-37,-0.0456779,0.0132613,10.0019,-1.15587,0.137126,-6.2146,-4.09863,-0.584961
352,-2.1682e-37,-0.0659709,0.0117235,9.99625,-1.14434,0.117249,-3.27417,-4.10059,-0.591064
353,-2.17007e-37,-0.0641465,0.00330459,9.98669,-1.19078,0.178109,-2.73608,-4.11084,-0.587402
354,-2.17194e-37,-0.0590396,0.00666646,9.99438,-1.11248,0.174087,0.307129,-4.14233,-0.595215
355,-2.1738e-37,-0.0867282,0.00694541,9.98874,-1.01553,0.250341,-5.52588,-4.10376,-0.592285
356,-2.17567e-37,-0.0650837,0.00395552,9.98702,-1.13228,0.259818,3.35547,-4.11548,-0.589355
357,-2.17754e-37,-0.0729087,0.0190337,9.98246,-1.15477,0.274418,0.27002,-4.09131,-0.596191
358,-2.17941e-37,-0.0476809,-0.00200995,10.0035,-1.18704,0.0963736,1.40503,-4.1084,-0.587646
359,-2.18128e-37,-0.0461217,-0.00060797,10.0129,-1.11317,0.131081,-4.22412,-4.09619,-0.592285
360,-2.18315e-37,-0.050263,0.00175245,10.037,-1.14841,0.2257,-3.31152,-4.11206,-0.588867
361,-2.18501e-37,-0.0756487,-0.0121169,9.99194,-1.24308,0.179005,6.48364,-4.10083,-0.588867
362,-2.18688e-37,-0.0600982,0.00728875,10.0374,-1.20064,0.184743,-4.67871,-4.10962,-0.590088
363,-2.18875e-37,-0.063882,-0.00135904,10.0296,-1.14022,0.181695,6.77612,-4.12354,-0.585938
364,-2.19062e-37,-0.0801404,0.00581526,9.97315,-1.16194,0.22821,-0.120605,-4.13672,-0.592285
365,-2.19249e-37,-0.0715427,-0.00502845,10.0039,-1.18269,0.233615,1.18384,-4.09961,-0.588867
366,-2.19436e-37,-0.077265,0.00563644,9.98073,-1.01555,0.242016,1.97803,-4.10522,-0.592529
367,-2.19622e-37,-0.0559138,0.0123816,9.9998,-1.00205,0.131004,-0.946777,-4.11523,-0.587402
368,-2.19809e-37,-0.0666931,-0.00813994,9.98015,-1.05902,0.0620505,2.7749,-4.11279,-0.588135
369,-2.19996e-37,-0.0683524,-0.0216875,9.96653,-1.11865,0.232693,-7.84277,-4.09692,-0.59082
370,-2.20183e-37,-0.076657,-0.0118737,10.0167,-1.17843,0.27347,1.00391,-4.12207,-0.585693
371,-2.2037e-37,-0.0621296,-0.00770361,9.98419,-1.15,0.246678,1.23853,-4.10181,-0.593018
372,-2.20557e-37,-0.0645115,0.00498553,9.98875,-1.08476,0.256719,5.13965,-4.11597,-0.588623
373,-2.20743e-37,-0.0704339,0.0147849,9.98208,-1.11985,0.123422,1.92505,-4.10498,-0.591797
374,-2.2093e-37,-0.0705556,0.015443,9.97489,-1.16829,0.267169,-5.57373,-4.10742,-0.586914
375,-2.21117e-37,-0.0471158,-0.0172169,10.0043,-1.06612,0.155389,-7.50562,-4.11401,-0.590576
376,-2.21304e-37,-0.054612,0.00700979,9.97288,-1.15333,0.204133,1.30737,-4.11377,-0.593262
377,-2.21491e-37,-0.0569295,-0.00959196,10.0049,-1.08143,0.177186,-7.55835,-4.14502,-0.58667
378,-2.21678e-37,-0.0554204,-0.00967062,10.0106,-1.08443,0.223215,-1.47949,-4.10889,-0.592285
379,-2.21864e-37,-0.0592255,-0.00816855,9.99053,-1.10469,0.326313,-5.51782,-4.10962,-0.587158
380,-2.22051e-37,-0.0708561,0.00278246,9.99306,-1.11896,0.256386,-7.46582,-4.10449,-0.591797
381,-2.22238e-37,-0.0690963,-0.0106649,9.97763,-1.21637,0.097475,-3.69629,-4.09863,-0.591553
382,-2.22425e-37,-0.0696757,0.00830441,9.99731,-1.09752,0.249009,7.79248,-4.09912,-0.585693
383,-2.22612e-37,-0.0628449,0.0119095,10.0032,-1.11873,0.130671,5.84546,-4.12524,-0.59082
384,-2.22799e-37,-0.0537821,-0.000815436,10.0063,-1.15981,0.143734,7.72119,-4.12402,-0.585693
385,-2.22985e-37,-0.0615788,0.0114302,10.0163,-1.17626,0.172064,1.73486,-4.11963,-0.589844
386,-2.23172e-37,-0.0488754,0.0107007,10.0036,-1.14199,0.256027,-1.64062,-4.1062,-0.590576
387,-2.23359e-37,-0.0494907,0.00746045,10.0274,-1.04836,0.223651,7.43628,-4.10718,-0.587402
388,-2.23546e-37,-0.0568579,0.0155789,9.99125,-1.21524,0.238942,-6.02881,-4.08862,-0.592773
389,-2.23733e-37,-0.0699977,0.00988523,9.99269,-1.10292,0.242528,-6.75879,-4.12329,-0.589355
390,-2.2392e-37,-0.0869859,0.0110369,10.0037,-1.13527,0.211305,-7.1438,-4.10986,-0.59082
391,-2.24106e-37,-0.080026,0.00909842,10.0093,-1.11161,0.154774,4.57324,-4.09277,-0.591064
392,-2.24293e-37,-0.0651052,0.00690249,9.96534,-1.13494,0.176136,-5.68408,-4.10303,-0.588623
393,-2.2448e-37,-0.0476809,0.0151926,10.0121,-1.12139,0.156746,2.78784,-4.09131,-0.594238
394,-2.24667e-37,-0.0475163,-0.0212654,10.0116,-1.15256,0.0580547,6.0293,-4.11426,-0.58667
395,-2.24854e-37,-0.0583028,-0.00552199,9.96858,-1.19542,0.228133,4.72266,-4.08667,-0.592529
396,-2.25041e-37,-0.0847755,0.00681666,10.0005,-1.07313,0.220987,-3.78101,-4.11377,-0.58667
397,-2.25227e-37,-0.0518724,-0.0103359,9.99241,-1.15302,0.145271,2.61646,-4.11206,-0.592529
398,-2.25414e-37,-0.0502918,0.0015522,9.98234,-1.15528,0.257103,-3.78662,-4.10986,-0.590088
399,-2.25601e-37,-0.0819001,0.00670937,9.9843,-1.16491,0.198959,4.50903,-4.11499,-0.588867
400,-2.25788e-37,-0.0527093,0.000593686,9.9733,-1.21378,0.193682,-3.06055,-4.10352,-0.593994
401,-2.25975e-37,-0.056915,0.00108005,9.9936,-1.23199,0.202878,7.43628,-4.10718,-0.589355
402,-2.26162e-37,-0.075441,-0.0122528,9.99812,-1.09526,0.183718,3.0481,-4.0896,-0.592041
403,-2.26348e-37,-0.0613213,0.000436323,10.0066,-1.16025,0.217785,6.7207,-4.12134,-0.590088
404,-2.26535e-37,-0.0469228,-0.00267513,10.003,-1.10467,0.286559,4.82056,-4.11255,-0.588379
405,-2.26722e-37,-0.0545617,-0.0175316,10.0075,-1.16437,0.176777,4.85254,-4.09717,-0.594238
406,-2.26909e-37,-0.0494045,0.00597975,9.98909,-1.10379,0.191863,7.00391,-4.09741,-0.585205
407,-2.27096e-37,-0.0571798,0.0169451,9.99172,-1.17887,0.108592,-1.01514,-4.10327,-0.593018
408,-2.27283e-37,-0.0609351,0.00970641,9.99129,-1.1531,0.129621,-1.4668,-4.11865,-0.588867
409,-2.27469e-37,-0.064533,-0.0179679,9.99496,-1.19465,0.248471,-7.6665,-4.11133,-0.588623
410,-2.27656e-37,-0.0593471,-0.00153786,9.97241,-1.11445,0.288813,6.70239,-4.10767,-0.586426
411,-2.27843e-37,-0.065563,0.000715284,9.99465,-1.21627,0.329873,-4.84497,-4.10303,-0.58667
412,-2.2803e-37,-0.0553344,0.0031544,10.0153,-1.14698,0.232641,3.66187,-4.10913,-0.589844
413,-2.28217e-37,-0.0646689,-0.0054147,10.0073,-1.23845,0.108463,5.84497,-4.12524,-0.588135
414,-2.28404e-37,-0.0740675,0.00388396,10.0043,-1.14347,0.235587,0.449951,-4.1001,-0.591553
415,-2.2859e-37,-0.0724726,0.00497838,9.99169,-1.12569,0.256437,0.874756,-4.104,-0.588623
416,-2.28777e-37,-0.0656846,0.000422018,10.0081,-1.08973,0.194502,6.26758,-4.1272,-0.586182
417,-2.28964e-37,-0.049569,0.000479191,10.0139,-1.16161,0.277722,-3.24341,-4.09277,-0.591064
418,-2.29151e-37,-0.0774581,0.010064,10.0052,-1.14701,0.177955,-4.76318,-4.12476,-0.585449
419,-2.29338e-37,-0.0517077,-0.0104861,9.9913,-1.11207,0.183001,-5.42285,-4.10229,-0.589355
420,-2.29525e-37,-0.0558065,-0.00536463,9.99907,-1.13794,0.112049,5.49097,-4.104,-0.585938
421,-2.29711e-37,-0.057938,-0.00795396,10.0118,-1.24121,0.159385,-2.61475,-4.0918,-0.589355
422,-2.29898e-37,-0.0595474,-0.0187762,9.98363,-1.19362,0.14481,7.1958,-4.09229,-0.5896
423,-2.30085e-37,-0.0470586,-0.003276,9.97583,-1.09309,0.258921,3.24463,-4.11108,-0.5896
424,-2.30272e-37,-0.0676303,-0.00549336,9.98106,-1.15968,0.177519,-3.7417,-4.10425,-0.592041
425,-2.30459e-37,-0.0556776,0.00886236,10.0154,-1.17134,0.155722,-2.77856,-4.11841,-0.589355
426,-2.30646e-37,-0.0631953,0.0112586,10.0083,-1.13412,0.205644,2.07031,-4.1272,-0.590576
427,-2.30832e-37,-0.0614575,0.010951,9.99003,-1.17265,0.216146,0.16333,-4.08984,-0.588623
428,-2.31019e-37,-0.069075,-0.00651624,10.0035,-1.12646,0.0728597,1.83252,-4.11426,-0.588623
429,-2.31206e-37,-0.0636746,-0.0159294,10.0103,-1.17093,0.124421,-0.012207,-4.10791,-0.592285
430,-2.31393e-37,-0.05836,-0.0017596,9.99502,-1.22997,0.282563,-6.09082,-4.14404,-0.586914
431,-2.3158e-37,-0.060785,0.00711712,9.99945,-1.11314,0.333408,-0.381592,-4.1062,-0.592529
432,-2.31767e-37,-0.0795754,-0.00256787,10.006,-1.13702,0.191274,3.45581,-4.11206,-0.591309
433,-2.31953e-37,-0.0708275,-0.0010014,10.0137,-1.13187,0.215019,7.52612,-4.09595,-0.588379
434,-2.3214e-37,-0.0729447,0.00935592,9.99985,-1.12219,0.283947,-0.991699,-4.0896,-0.5896
435,-2.32327e-37,-0.0585459,-0.00291125,9.9974,-1.10969,0.303977,-4.31714,-4.10547,-0.585449
436,-2.32514e-37,-0.0610638,0.00768931,10.0056,-1.05697,0.266426,-3.68628,-4.10645,-0.592529
437,-2.32701e-37,-0.0538466,-0.00180968,9.99042,-1.07872,0.197242,7.45947,-4.15601,-0.585693
438,-2.32888e-37,-0.0521584,-0.0084189,9.98457,-1.13351,0.105851,6.04224,-4.12402,-0.590088
439,-2.33074e-37,-0.061586,-0.010858,9.99357,-1.13986,0.0967578,-6.50269,-4.11865,-0.590088
440,-2.33261e-37,-0.0620724,0.00505706,10.0041,-1.16337,0.253747,7.37256,-4.09912,-0.590088
441,-2.33448e-37,-0.0771218,0.00291118,10.0075,-1.14426,0.255438,-7.18091,-4.12134,-0.593262
442,-2.33635e-37,-0.0594115,0.00795396,10.0193,-1.23481,0.0857693,3.71729,-4.11133,-0.585449
443,-2.33822e-37,-0.0703053,0.0054147,10.0026,-1.17644,0.204542,1.24927,-4.10962,-0.594727
444,-2.34009e-37,-0.0450127,-0.00607277,10.015,-1.12977,0.0919423,2.0332,-4.10742,-0.58667
445,-2.34195e-37,-0.0504275,0.00537179,9.9865,-1.07495,0.21069,4.40601,-4.11646,-0.593018
446,-2.34382e-37,-0.0562428,-0.00228176,9.99332,-1.08689,0.294807,-1.3689,-4.11328,-0.589355
447,-2.34569e-37,-0.0677591,0.00919145,9.98867,-1.12262,0.279976,6.95605,-4.10107,-0.588135
448,-2.34756e-37,-0.0826296,-0.0132614,9.99427,-1.19365,0.0563385,2.24951,-4.1123,-0.592041
449,-2.34943e-37,-0.0645401,0.0061586,9.98507,-1.14355,0.236304,-4.22412,-4.09619,-0.586426
450,-2.35129e-37,-0.046758,0.00556488,9.99822,-1.14672,0.21279,-7.68213,-4.09961,-0.591309
451,-2.35316e-37,-0.0414722,0.0105576,9.98411,-1.0612,0.151547,7.38354,-4.10693,-0.591309
452,-2.35503e-37,-0.0564431,0.000278961,9.99979,-1.23535,0.191735,6.5415,-4.10498,-0.59082
453,-2.3569e-37,-0.0727232,-0.026444,9.98666,-1.05159,0.258025,-0.780518,-4.09058,-0.592529
454,-2.35877e-37,-0.0495405,-0.00550054,9.985,-1.18374,0.196833,0.423584,-4.15063,-0.586182
455,-2.36064e-37,-0.0594471,-0.0122457,10.0249,-1.0382,0.135179,-5.94043,-4.10767,-0.593994
456,-2.3625e-37,-0.0580598,0.0223527,10.0093,-1.17454,0.134795,4.4563,-4.11475,-0.588135
457,-2.36437e-37,-0.0344912,0.0127965,10.02,-1.16809,0.200752,5.96094,-4.10229,-0.5896
458,-2.36624e-37,-0.0602269,0.00599408,10.0101,-1.16596,0.262046,6.28809,-4.08032,-0.589844
459,-2.36811e-37,-0.0623655,-0.00120171,10.0097,-1.13576,0.24404,3.45337,-4.11011,-0.588135
460,-2.36998e-37,-0.0758559,0.0128394,10.0181,-1.10236,0.102675,7.30127,-4.12402,-0.590332
461,-2.37185e-37,-0.0719719,0.00175245,9.99905,-1.11962,0.169169,-6.86694,-4.1521,-0.588867
462,-2.37371e-37,-0.0759703,-0.00246058,10.008,-1.13105,0.275417,-0.534424,-4.10938,-0.593262
463,-2.37558e-37,-0.0558782,-0.00760345,9.98591,-1.22008,0.14919,0.861816,-4.09424,-0.587158
464,-2.37745e-37,-0.0617147,-0.00623013,9.99161,-1.19496,0.162638,0.887939,-4.14502,-0.588135
465,-2.37932e-37,-0.0603915,0.00819001,9.99656,-1.1206,0.24532,-5.65552,-4.09326,-0.59082
466,-2.38119e-37,-0.0479169,-0.00720291,10.0103,-1.09434,0.245474,-7.12427,-4.09326,-0.586426
467,-2.38306e-37,-0.0629307,-0.00701694,10.0084,-1.09995,0.236074,-6.02783,-4.12085,-0.592773
468,-2.38492e-37,-0.0872718,-0.00221023,10.016,-1.06022,0.213072,-1.94653,-4.11255,-0.587646
469,-2.38679e-37,-0.0658777,0.0206932,10.0127,-1.14165,0.212765,-6.54907,-4.09204,-0.589844
470,-2.38866e-37,-0.0513216,0.00673798,10.0082,-1.1761,0.243374,-4.71851,-4.08789,-0.589111
471,-2.39053e-37,-0.0736244,0.00685245,10.0044,-1.23558,0.21968,-4.94751,-4.10449,-0.587402
472,-2.3924e-37,-0.0573302,0.0100784,9.99035,-1.17436,0.326056,7.92407,-4.11914,-0.591553
473,-2.39427e-37,-0.0539181,-0.0160295,9.99762,-1.1437,0.333408,3.82837,-4.14697,-0.58667
474,-2.39613e-37,-0.0582314,-0.004821,9.99677,-1.16194,0.190045,-5.66333,-4.11865,-0.588135
475,-2.398e-37,-0.0662995,-0.00166664,10.0264,-1.11852,0.167889,0.600098,-4.09497,-0.588379
476,-2.39987e-37,-0.0711779,-0.0118737,9.97242,-1.11568,0.149805,1.31006,-4.11572,-0.587891
477,-2.40174e-37,-0.0755626,0.00915564,9.98705,-1.13612,0.20298,1.66357,-4.13696,-0.591797
478,-2.40361e-37,-0.0540682,0.00462786,10.0036,-1.08571,0.157797,7.52905,-4.0979,-0.587891
479,-2.40548e-37,-0.0466651,-0.00281822,9.98672,-1.11463,0.271037,0.615723,-4.10669,-0.592285
480,-2.40734e-37,-0.0690608,0.00103718,9.9832,-1.1582,0.152085,-2.89404,-4.11011,-0.586182
481,-2.40921e-37,-0.0624801,0.0180395,10.0032,-1.16783,0.103725,-4.46191,-4.1145,-0.591064
482,-2.41108e-37,-0.0566217,0.00572939,9.97668,-1.08287,0.23236,3.94507,-4.09375,-0.590088
483,-2.41295e-37,-0.0716929,-0.00650909,9.99214,-1.08907,0.104493,-1.84155,-4.11304,-0.586426
484,-2.41482e-37,-0.0703911,0.0194486,9.99259,-1.1375,0.100446,7.66431,-4.0896,-0.591064
485,-2.41669e-37,-0.0669504,0.00540035,10.01,-1.16581,0.197089,3.61816,-4.08447,-0.586914
486,-2.41855e-37,-0.0743753,-0.00324739,10.0038,-1.08556,0.155568,6.2522,-4.09277,-0.591064
487,-2.42042e-37,-0.0652625,-0.0194486,10.0046,-1.2133,0.0912763,-3.85498,-4.0979,-0.589355
488,-2.42229e-37,-0.0656989,0.00280391,10.0029,-1.14839,0.150445,-3.31396,-4.11011,-0.587402
489,-2.42416e-37,-0.062194,0.00557922,9.99409,-1.1447,0.130825,-0.861816,-4.1001,-0.593018
490,-2.42603e-37,-0.0476809,0.00244627,9.99231,-1.18999,0.11917,-2.04443,-4.08667,-0.585205
491,-2.4279e-37,-0.0499125,0.00524303,10.0037,-1.17859,0.231745,7.07715,-4.11328,-0.593506
492,-2.42976e-37,-0.0446697,-0.00778942,10.0083,-1.06965,0.168247,4.86304,-4.10498,-0.588135
493,-2.43163e-37,-0.0688533,0.00735312,10.0021,-1.14283,0.115123,6.63428,-4.0957,-0.588135
494,-2.4335e-37,-0.0653126,0.00405566,10.0001,-1.13015,0.129749,5.2854,-4.10693,-0.591797
495,-2.43537e-37,-0.0612927,0.00203141,9.96157,-1.17664,0.268348,7.61572,-4.09229,-0.584961
496,-2.43724e-37,-0.0692541,-0.00541464,9.98488,-1.1362,0.232385,1.35376,-4.07788,-0.593262
497,-2.43911e-37,-0.0680161,-0.000665262,9.99647,-1.09406,0.232744,7.03223,-4.08765,-0.587402
498,-2.44097e-37,-0.0628806,-0.0183327,10.0136,-1.11327,0.16046,3.62207,-4.0874,-0.594971
499,-2.44284e-37,-0.0611139,-0.00286114,9.98561,-1.14872,0.203492,5.17944,-4.10645,-0.59082
500,-2.44471e-37,-0.0707273,-0.0096921,10.0016,-1.25925,0.217836,-0.778076,-4.12378,-0.588867
501,-2.44658e-37,-0.063553,-0.0263225,10.0041,-1.11419,0.135615,3.36328,-4.12134,-0.593018
502,-2.44845e-37,-0.0604703,-0.00236041,10.0063,-1.13394,0.208897,6.43604,-4.10449,-0.584717
503,-2.45032e-37,-0.0663569,-0.00866925,10.0169,-1.20758,0.211407,7.15942,-4.09619,-0.586914
504,-2.45218e-37,-0.0574588,0.00600124,9.99819,-1.19992,0.276775,7.58154,-4.09814,-0.5896
505,-2.45405e-37,-0.0740961,0.00360499,9.98137,-1.23794,0.288352,-0.0673828,-4.10571,-0.589844
506,-2.45592e-37,-0.0827512,0.0219735,10.0234,-1.11775,0.183769,-0.785645,-4.11792,-0.587891
507,-2.45779e-37,-0.0658705,0.000722437,9.99807,-1.19529,0.247498,-2.88647,-4.11597,-0.584961
508,-2.45966e-37,-0.0462001,-0.0134044,10.0175,-1.12915,0.180824,4.14209,-4.11523,-0.59082
509,-2.46153e-37,-0.0593043,0.00458499,10.0006,-1.08581,0.242042,5.13184,-4.14136,-0.587402
510,-2.46339e-37,-0.0540111,-0.00587964,9.99809,-1.08648,0.112536,1.51074,-4.14014,-0.591553
511,-2.46526e-37,-0.0721509,0.00439904,9.96395,-1.13189,0.204824,-4.87036,-4.09204,-0.591553
512,-2.46713e-37,-0.0579452,-0.0139981,9.99027,-1.14498,0.162202,-4.84985,-4.09912,-0.59082
513,-2.469e-37,-0.0660994,0.0104861,10.0053,-1.21388,0.168554,-5.21899,-4.09741,-0.591309
514,-2.47087e-37,-0.0662854,0.0070527,10.0033,-1.1467,0.156746,3.33765,-4.10181,-0.586914
515,-2.47274e-37,-0.0592972,0.0169022,9.9989,-1.11624,0.23966,2.08667,-4.10767,-0.589844
516,-2.4746e-37,-0.0596976,-0.00106577,10.0177,-1.25146,0.0903542,-1.37134,-4.11133,-0.587402
517,-2.47647e-37,-0.0721507,-0.00598693,9.98784,-1.09004,0.270909,-7.78735,-4.09912,-0.589844
518,-2.47834e-37,-0.0707847,0.00403424,9.98153,-1.19864,0.273265,3.24243,-4.10913,-0.590576
519,-2.48021e-37,-0.0561999,-0.0134259,9.97483,-1.24631,0.231028,-0.411133,-4.12354,-0.587158
520,-2.48208e-37,-0.0549195,-0.0145131,9.98779,-1.12257,0.0490384,-0.62085,-4.09229,-0.593262
521,-2.48395e-37,-0.059247,0.00208863,10.0096,-1.18141,0.0998827,-2.49536,-4.12573,-0.588623
522,-2.48581e-37,-0.0575301,0.0106506,9.99761,-1.23153,0.11812,2.95996,-4.09424,-0.590332
523,-2.48768e-37,-0.0596976,0.00768931,10.0104,-1.1511,0.0707337,-0.434326,-4.10596,-0.587158
524,-2.48955e-37,-0.0573873,-0.0062802,9.98356,-1.17267,0.209896,-1.94678,-4.1438,-0.589355
525,-2.49142e-37,-0.0675228,0.0096778,10.0107,-1.19829,0.0883307,4.15112,-4.09082,-0.591797
526,-2.49329e-37,-0.0452203,-0.0149852,10.0035,-1.12155,0.230976,-4.19287,-4.11963,-0.584717
527,-2.49516e-37,-0.0711207,-0.014506,9.99595,-1.17431,0.146373,7.68213,-4.09473,-0.593018
528,-2.49702e-37,-0.0662711,-0.00681666,10.0153,-1.15067,0.226545,-0.748535,-4.10645,-0.586426
529,-2.49889e-37,-0.0810059,-0.001123,9.9918,-1.19086,0.149036,-4.32764,-4.09766,-0.593018
530,-2.50076e-37,-0.0590465,-0.00520015,9.98088,-1.22098,0.220808,-0.286621,-4.09888,-0.588623
531,-2.50263e-37,-0.0813493,-0.0195416,9.99414,-1.1237,0.0541101,-2.80713,-4.12817,-0.586914
532,-2.5045e-37,-0.0689319,-0.0108723,10.0044,-1.1501,0.166582,1.76416,-4.10229,-0.591309
533,-2.50637e-37,-0.0597548,-0.0107722,9.98634,-1.16401,0.256232,6.12183,-4.10498,-0.588379
534,-2.50823e-37,-0.0622655,-0.00237474,9.99641,-1.1334,0.108463,-7.41016,-4.10669,-0.591309
535,-2.5101e-37,-0.0517222,-0.00369802,10.015,-1.17777,0.331307,-5.73169,-4.10669,-0.588623
536,-2.51197e-37,-0.041501,0.0171239,10.0116,-1.11591,0.209921,-5.47803,-4.1001,-0.590332
537,-2.51384e-37,-0.0517367,-0.00802546,9.96524,-1.06532,0.227493,-0.645508,-4.10498,-0.592529
538,-2.51571e-37,-0.0706772,0.000264655,9.97506,-1.12078,0.339401,1.104,-4.11865,-0.586426
539,-2.51758e-37,-0.065005,0.0154644,10.0337,-1.13604,0.208999,1.14917,-4.11304,-0.592041
540,-2.51944e-37,-0.0825796,-2.86114e-05,9.98068,-1.05905,0.28784,5.48364,-4.09814,-0.587402
541,-2.52131e-37,-0.063038,-0.0104002,10.0004,-1.21173,0.215454,7.61011,-4.11963,-0.591309
542,-2.52318e-37,-0.0610996,-0.021573,9.98301,-1.18194,0.215761,-2.00244,-4.11035,-0.589844
543,-2.52505e-37,-0.0542114,0.0103359,9.9586,-1.17774,0.0995241,5.28784,-4.10889,-0.58667
544,-2.52692e-37,-0.0367727,0.0022102,10.0116,-1.16191,0.336917,-5.03003,-4.12158,-0.592285
545,-2.52879e-37,-0.0738889,-0.0242696,10.0345,-1.1396,0.260689,-2.73877,-4.10889,-0.589355
546,-2.53065e-37,-0.0469012,0.010157,10.007,-1.22062,0.145783,4.91577,-4.10522,-0.588867
547,-2.53252e-37,-0.0613498,-0.00125894,9.98935,-1.08333,0.253773,3.17114,-4.09521,-0.592773
548,-2.53439e-37,-0.0671721,-0.0148708,9.99918,-1.1417,0.252723,4.08765,-4.08276,-0.592285
549,-2.53626e-37,-0.0767357,-0.0249777,10.0093,-1.16217,0.213303,0.143555,-4.10645,-0.5896
550,-2.53813e-37,-0.0628377,0.00105862,10.0102,-1.17736,0.23802,-4.51538,-4.11426,-0.586426
551,-2.54e-37,-0.0516433,-0.0050571,9.98057,-1.17495,0.224009,5.93774,-4.09326,-0.590576
552,-2.54186e-37,-0.0690321,-0.00062945,10.0103,-1.06166,0.22009,-4.8689,-4.09302,-0.588379
553,-2.54373e-37,-0.0677229,-0.00750336,10.0282,-1.1553,0.187688,-0.962402,-4.10352,-0.59082
554,-2.5456e-37,-0.0658919,0.00468509,9.99829,-1.0925,0.23925,4.01831,-4.13232,-0.592041
555,-2.54747e-37,-0.051615,0.00930586,9.99357,-1.05482,0.220321,-4.14795,-4.14526,-0.587646
556,-2.54934e-37,-0.0648977,0.000565075,10.0093,-1.09926,0.157079,-5.31738,-4.10278,-0.591064
557,-2.55121e-37,-0.0798184,0.0105361,10.0009,-1.18117,0.157387,7.47607,-4.09766,-0.586426
558,-2.55307e-37,-0.048675,0.0149995,9.97991,-1.20064,0.239711,-7.96753,-4.12158,-0.589844
559,-2.55494e-37,-0.0834451,-0.0113158,9.98075,-1.13115,0.264633,4.79956,-4.09692,-0.588379
560,-2.55681e-37,-0.067673,-0.00861918,9.99612,-1.13333,0.0559287,-5.09033,-4.11548,-0.59082
561,-2.55868e-37,-0.0695902,-0.00431313,9.99114,-1.20284,0.198241,5.37817,-4.09766,-0.593262
562,-2.56055e-37,-0.0520369,-0.00873362,10.0224,-1.1926,0.171603,-7.22998,-4.09277,-0.584473
563,-2.56242e-37,-0.0449628,0.00179536,10.0108,-1.08156,0.194809,-0.0703125,-4.10376,-0.594482
564,-2.56428e-37,-0.0469442,0.00505708,9.99837,-1.1697,0.247088,1.60059,-4.12891,-0.588867
565,-2.56615e-37,-0.0673728,-0.00460639,10.001,-1.14888,0.23049,7.20898,-4.09448,-0.589355
566,-2.56802e-37,-0.0567651,0.00571514,9.9931,-1.10697,0.219117,-3.771,-4.12158,-0.591553
567,-2.56989e-37,-0.0756558,0.0102214,10.0026,-1.06355,0.167479,-6.19849,-4.11035,-0.5896
568,-2.57176e-37,-0.0760632,0.00363363,10.0168,-1.12646,0.185665,-3.24316,-4.12402,-0.592041
569,-2.57363e-37,-0.053782,0.00601551,9.97892,-1.2354,0.182694,-5.91821,-4.09302,-0.58667
570,-2.57549e-37,-0.0596836,-0.00690961,9.998,-1.14319,0.195885,-7.81567,-4.08618,-0.592285
571,-2.57736e-37,-0.0543616,-0.0137764,9.99574,-1.12175,0.239813,1.25708,-4.11548,-0.589844
572,-2.57923e-37,-0.0730019,-0.0115304,9.99032,-1.12431,0.180388,3.97632,-4.10864,-0.591553
573,-2.5811e-37,-0.0695755,-0.00492832,9.98197,-1.14657,0.117275,-5.2644,-4.10303,-0.591797
574,-2.58297e-37,-0.0614359,0.0205716,10.0068,-1.0841,0.239403,-5.92456,-4.11938,-0.587402
575,-2.58484e-37,-0.0741963,0.00928438,9.99095,-1.13566,0.107029,7.40405,-4.12256,-0.59375
576,-2.5867e-37,-0.0582313,0.00558637,10.0149,-1.148,0.220782,6.29834,-4.11938,-0.590088
577,-2.58857e-37,-0.0450415,-0.00561498,9.98292,-1.13005,0.216863,-5.44678,-4.12354,-0.5896
578,-2.59044e-37,-0.0402991,0.000157363,10.0021,-1.02301,0.252851,-0.0703125,-4.10376,-0.589844
579,-2.59231e-37,-0.0624372,-0.00442761,9.99228,-1.25387,0.207898,-5.32495,-4.09692,-0.586426
580,-2.59418e-37,-0.0614286,0.0107436,10.0068,-1.23046,0.212688,-4.50879,-4.08789,-0.591064
581,-2.59605e-37,-0.0561999,-0.000786813,10.0133,-1.05241,0.217401,3.23975,-4.10718,-0.585693
582,-2.59791e-37,-0.0722368,-0.0119381,9.97718,-1.17029,0.237098,5.41431,-4.09375,-0.590332
583,-2.59978e-37,-0.0639106,-0.0105361,10.0034,-1.05421,0.188764,3.72778,-4.11914,-0.592285
584,-2.60165e-37,-0.0752621,-0.00878371,10.0054,-1.14175,0.250085,-2.19775,-4.12109,-0.587646
585,-2.60352e-37,-0.0573086,4.29171e-05,9.99565,-1.18617,0.26991,-1.09985,-4.11841,-0.59082
586,-2.60539e-37,-0.0586748,0.0123673,10.0394,-1.1489,0.170552,5.44385,-4.10767,-0.589111
587,-2.60726e-37,-0.0511358,0.00770364,10.0153,-1.10641,0.183334,-1.79126,-4.11133,-0.591309
588,-2.60912e-37,-0.0710206,-0.00718861,9.99706,-1.0969,0.280104,-3.07056,-4.0957,-0.590088
589,-2.61099e-37,-0.0607706,0.00761063,10.0007,-1.14506,0.134283,-4.16602,-4.10034,-0.589355
590,-2.61286e-37,-0.0665357,-0.000708131,10.011,-1.11722,0.158411,7.47363,-4.0957,-0.589355
591,-2.61473e-37,-0.0590253,-0.007675,9.99217,-1.18661,0.0807233,6.76831,-4.08643,-0.588135
592,-2.6166e-37,-0.0742825,0.00547195,10.0063,-1.13041,0.149318,3.28198,-4.09961,-0.592285
593,-2.61847e-37,-0.0617934,0.0135189,10.0038,-1.19695,0.110154,-1.14722,-4.09082,-0.586914
594,-2.62033e-37,-0.0650978,0.00279672,9.98259,-1.1793,0.287737,-3.16602,-4.10303,-0.591797
595,-2.6222e-37,-0.0565649,-0.00406278,9.99877,-1.14429,0.14814,7.91748,-4.08301,-0.589355
596,-2.62407e-37,-0.0403065,-0.0156647,10.0091,-1.18904,0.136306,6.09253,-4.09106,-0.588867
597,-2.62594e-37,-0.0516577,-0.00447054,10.0065,-1.12467,0.17191,0.526367,-4.11792,-0.589355
598,-2.62781e-37,-0.0836165,0.00793964,10.0259,-1.22454,0.0898675,2.99268,-4.0874,-0.587402
599,-2.62968e-37,-0.0649049,0.0119739,9.98993,-1.12324,0.195014,2.93823,-4.11743,-0.593994
600,-2.63154e-37,-0.0618006,-0.00568651,10.0215,-1.09304,0.164764,-1.64014,-4.1062,-0.586182
601,-2.63341e-37,-0.0671011,0.00361223,9.98569,-1.17964,0.204696,5.35474,-4.08862,-0.589844
602,-2.63528e-37,-0.0699119,-0.00259648,10.0294,-1.13778,0.322752,-1.1814,-4.12793,-0.5896
603,-2.63715e-37,-0.0626804,-0.00772507,10.0107,-1.30548,0.187996,5.98413,-4.11987,-0.588867
604,-2.63902e-37,-0.0504919,0.00459928,10.0179,-1.11509,0.340528,-5.92603,-4.08716,-0.595215
605,-2.64089e-37,-0.0675658,-0.00808987,10.0331,-1.18453,0.319397,-1.5957,-4.10059,-0.585693
606,-2.64275e-37,-0.0503346,-0.0221523,9.97685,-1.06962,0.33935,-6.09595,-4.17139,-0.59375
607,-2.64462e-37,-0.0642325,0.00484247,9.98326,-1.18422,0.213943,6.92651,-4.11841,-0.590088
608,-2.64649e-37,-0.0501486,-0.00635888,10.0064,-1.16721,0.183308,-7.40796,-4.10864,-0.590576
609,-2.64836e-37,-0.0537465,0.00217446,9.97798,-1.13566,0.105979,-0.574463,-4.1189,-0.59375
610,-2.65023e-37,-0.0733667,0.0131612,10.0305,-1.15244,0.0760359,-3.77881,-4.14697,-0.583252
611,-2.6521e-37,-0.0620366,0.00845466,10.0083,-1.22057,0.272932,3.76758,-4.10962,-0.594238
612,-2.65396e-37,-0.0770218,-0.00743896,10.0177,-1.02634,0.219117,6.80811,-4.10815,-0.588379
613,-2.65583e-37,-0.0652339,-0.0280749,9.9735,-1.13033,0.273522,1.46069,-4.1106,-0.589844
614,-2.6577e-37,-0.0796038,0.00545759,10.0045,-1.10787,0.178646,2.55078,-4.10205,-0.590576
615,-2.65957e-37,-0.0523946,-0.0179894,10.0248,-1.08889,0.2351,-2.53027,-4.10791,-0.586182
616,-2.66144e-37,-0.0697259,0.00123029,10.0341,-1.12201,0.317911,-1.9707,-4.09497,-0.590332
617,-2.6633e-37,-0.0839315,-0.0132471,9.99568,-1.13753,0.154953,-4.98999,-4.11206,-0.585938
618,-2.66517e-37,-0.0516006,-0.000536463,10.0051,-1.14052,0.245346,7.52905,-4.12915,-0.589844
619,-2.66704e-37,-0.0759846,0.00210294,10.0125,-1.15402,0.291503,-6.58667,-4.12622,-0.5896
620,-2.66891e-37,-0.0636818,-0.0101785,10.0282,-1.20169,0.230157,-7.37305,-4.09521,-0.586426
621,-2.67078e-37,-0.0668507,-0.0169021,9.98707,-1.13607,0.258256,-5.39526,-4.09155,-0.588623
622,-2.67265e-37,-0.0405423,0.00145918,10.0117,-1.11145,0.129877,-3.40137,-4.12329,-0.584229
623,-2.67451e-37,-0.0532529,-0.0229821,10.0165,-1.14982,0.191735,3.40967,-4.08545,-0.593262
624,-2.67638e-37,-0.061307,0.0131612,10.0056,-1.23379,0.142582,7.21191,-4.09644,-0.589111
625,-2.67825e-37,-0.0669722,0.011466,10.0037,-1.1426,0.17191,-5.99072,-4.10938,-0.59082
626,-2.68012e-37,-0.0615003,0.0154716,9.98595,-0.980129,0.0843861,-2.82617,-4.09082,-0.588623
627,-2.68199e-37,-0.0674871,-0.00266801,10.0209,-1.181,0.172499,3.75464,-4.1311,-0.58667
628,-2.68386e-37,-0.0856982,-0.00458497,10.0022,-1.1625,0.156388,-1.20288,-4.11987,-0.590088
629,-2.68572e-37,-0.07876,0.0071743,9.99821,-1.19132,0.21133,-3.7417,-4.1355,-0.587402
630,-2.68759e-37,-0.0535893,-0.00737454,10.0194,-1.17244,0.24468,6.26953,-4.0979,-0.593262
631,-2.68946e-37,-0.0547696,-0.0169879,9.97245,-1.19198,0.285176,1.63062,-4.08887,-0.591797
632,-2.69133e-37,-0.0559281,-0.00708131,10.0013,-1.20471,0.120938,-3.15088,-4.11475,-0.590576
633,-2.6932e-37,-0.0564574,0.00937022,10.0033,-1.18737,0.212278,7.33594,-4.1106,-0.592285
634,-2.69507e-37,-0.0604415,-0.010951,10.0214,-1.17347,0.0853338,-2.56445,-4.12134,-0.587891
635,-2.69693e-37,-0.0588178,-0.00496407,10.0186,-1.24393,0.320114,1.03052,-4.10278,-0.592285
636,-2.6988e-37,-0.0516864,-0.000851188,9.99912,-1.14823,0.337813,6.96411,-4.13818,-0.587891
637,-2.70067e-37,-0.0614073,-0.0113372,10.0109,-1.15008,0.249726,-0.00415039,-4.11377,-0.588867
638,-2.70254e-37,-0.0788603,0.0113945,10.0206,-1.17037,0.165942,6.22729,-4.10547,-0.5896
639,-2.70441e-37,-0.0533032,0.00304715,10.0185,-1.12121,0.214225,-1.12793,-4.09692,-0.586426
640,-2.70628e-37,-0.0475163,-0.0171311,10.0037,-1.07029,0.251545,-4.05273,-4.13794,-0.589844
641,-2.70814e-37,-0.0333823,0.00115161,9.99319,-1.14099,0.153032,-1.36865,-4.11328,-0.588623
642,-2.71001e-37,-0.0702838,-0.0118236,10.0061,-1.17533,0.271857,4.61694,-4.08618,-0.591797
643,-2.71188e-37,-0.0725726,-0.0016738,9.99811,-1.14562,0.314761,3.66187,-4.10913,-0.591064
644,-2.71375e-37,-0.0549553,0.00165946,10.0063,-1.17941,0.327619,7.76953,-4.09009,-0.588379
645,-2.71562e-37,-0.0685171,-0.00409858,10.0241,-1.08697,0.182309,4.50122,-4.10913,-0.593994
646,-2.71749e-37,-0.0613571,-0.0110154,10.0236,-1.07856,0.173011,1.92798,-4.10693,-0.585205
647,-2.71935e-37,-0.0579737,-0.000407722,10.014,-1.10823,0.114713,0.272705,-4.12451,-0.593506
648,-2.72122e-37,-0.0598191,-0.00307574,10.0065,-1.17093,0.298419,-3.74146,-4.1355,-0.585693
649,-2.72309e-37,-0.0820789,-0.0207361,10.0135,-1.12446,0.305309,-6.71631,-4.11572,-0.5896
650,-2.72496e-37,-0.0571726,-0.0134259,10.0205,-1.25781,0.108592,6.75244,-4.13721,-0.591309
651,-2.72683e-37,-0.0707131,0.00757487,10.0283,-1.13312,0.266042,1.83813,-4.14941,-0.58667
652,-2.7287e-37,-0.064869,-0.00976366,10.0046,-1.19547,0.206387,6.17725,-4.10718,-0.593018
653,-2.73056e-37,-0.0689319,-0.00813994,10.0067,-1.17119,0.309074,4.66211,-4.14307,-0.587158
654,-2.73243e-37,-0.0478452,0.00834734,10.0128,-1.1936,0.173319,-7.04102,-4.1084,-0.59082
655,-2.7343e-37,-0.0456994,-3.57963e-05,9.98997,-1.13525,0.250879,4.50098,-4.10913,-0.587158
656,-2.73617e-37,-0.0527665,-0.0347771,9.98802,-1.1947,0.319525,-6.21191,-4.10059,-0.591064
657,-2.73804e-37,-0.0597262,0.00624443,10,-1.11652,0.201366,1.60864,-4.10352,-0.593262
658,-2.73991e-37,-0.0560282,-0.00965634,9.99666,-1.18684,0.09435,1.00635,-4.12402,-0.585205
659,-2.74177e-37,-0.0544188,-0.0303781,10.0185,-1.26929,0.21694,-4.42773,-4.10107,-0.591553
660,-2.74364e-37,-0.0755484,0.00623014,10.0169,-1.14777,0.127777,7.9292,-4.12305,-0.586914
661,-2.74551e-37,-0.0663355,0.0104002,9.99931,-1.08169,0.190147,-6.69238,-4.15698,-0.589355
662,-2.74738e-37,-0.0491472,0.0202425,10.0322,-1.12208,0.263635,4.23169,-4.104,-0.591553
663,-2.74925e-37,-0.0783379,0.0211438,10.0044,-1.26534,0.191633,-3.66431,-4.0918,-0.585938
664,-2.75112e-37,-0.0484319,-0.00117307,9.97863,-1.22193,0.125343,-5.2395,-4.09033,-0.591797
665,-2.75298e-37,-0.063131,-0.0147349,9.98258,-1.17836,0.249726,0.0561523,-4.11963,-0.585205
666,-2.75485e-37,-0.047452,-0.000393406,9.9902,-1.16652,0.238404,-2.83936,-4.1123,-0.590576
667,-2.75672e-37,-0.0457925,-0.00305426,9.98274,-1.22651,0.157207,-5.61865,-4.11304,-0.588623
668,-2.75859e-37,-0.0794323,-0.00628735,10.0059,-1.13241,0.211996,1.50024,-4.13232,-0.588379
669,-2.76046e-37,-0.057609,-0.00853334,9.99891,-1.13924,0.171961,5.54126,-4.10229,-0.592773
670,-2.76233e-37,-0.0453776,0.0187691,9.98951,-1.11591,0.21799,5.36133,-4.12476,-0.585449
671,-2.76419e-37,-0.050592,-0.00597979,9.98126,-1.20669,0.249086,-6.10645,-4.13232,-0.589355
672,-2.76606e-37,-0.0612426,-0.00480671,10.0349,-1.10433,0.122936,-2.74634,-4.10303,-0.589111
673,-2.76793e-37,-0.0629091,0.00190979,10.01,-1.13105,0.128724,1.41016,-4.1123,-0.590332
674,-2.7698e-37,-0.0469513,-0.00354781,10.0301,-1.1167,0.215019,-5.10864,-4.10181,-0.590576
675,-2.77167e-37,-0.0617646,-0.00461363,10.0225,-1.17495,0.296498,-2.11841,-4.10205,-0.585693
676,-2.77354e-37,-0.0531671,-0.000700979,10.0233,-1.09537,0.209921,1.13599,-4.10327,-0.592285
677,-2.7754e-37,-0.0655916,-0.000185974,9.98649,-1.09603,0.196884,6.14819,-4.12451,-0.585693
678,-2.77727e-37,-0.0720077,0.0126176,10.0046,-1.22103,0.224112,1.84302,-4.12207,-0.591064
679,-2.77914e-37,-0.0481601,-0.00285398,9.9998,-1.21158,0.113561,4.25049,-4.11768,-0.586426
680,-2.78101e-37,-0.0594187,-0.017832,10.0165,-1.23082,0.297753,-0.125488,-4.10156,-0.5896
681,-2.78288e-37,-0.0527665,0.0119238,10,-1.15039,0.251212,6.92139,-4.1145,-0.591064
682,-2.78475e-37,-0.0620937,-0.0154645,10.0134,-1.13507,0.17629,-7.96997,-4.11963,-0.586426
683,-2.78661e-37,-0.0587321,0.0136047,9.98757,-1.1447,0.257999,-3.30859,-4.14526,-0.592529
684,-2.78848e-37,-0.0700049,0.00200995,9.99176,-1.17323,0.215326,4.25317,-4.11963,-0.589111
685,-2.79035e-37,-0.054147,-0.00962057,10.0167,-1.13981,0.247293,-6.68945,-4.09644,-0.591064
686,-2.79222e-37,-0.072766,-0.00105145,10.0046,-1.04982,0.167632,4.99438,-4.125,-0.592773
687,-2.79409e-37,-0.0597906,-0.00589394,9.98792,-1.21493,0.172499,-3.74121,-4.10425,-0.587402
688,-2.79596e-37,-0.0678805,-0.00488539,10.0102,-1.20284,0.230515,1.46851,-4.11646,-0.591064
689,-2.79782e-37,-0.0423234,-0.00243912,9.99458,-1.16696,0.28702,1.29956,-4.10791,-0.589355
690,-2.79969e-37,-0.0459356,-0.013619,9.9805,-1.07385,0.0931206,7.37085,-4.12842,-0.59375
691,-2.80156e-37,-0.0615001,-0.00185259,10.0058,-1.0906,0.144836,-7.75659,-4.12256,-0.592285
692,-2.80343e-37,-0.0609853,-0.02153,9.98704,-1.12113,0.323264,-6.20923,-4.10254,-0.589844
693,-2.8053e-37,-0.0570439,-0.00936307,10.0275,-1.18338,0.0427117,-5.16675,-4.12891,-0.591553
694,-2.80717e-37,-0.0748116,0.00889098,9.9797,-1.12436,0.252339,-5.82178,-4.11792,-0.584717
695,-2.80903e-37,-0.0771291,-0.016194,10.0064,-1.13894,0.223728,-4.45435,-4.12036,-0.591309
696,-2.8109e-37,-0.0635459,-0.00989238,10.0353,-1.03761,0.150138,2.40283,-4.10913,-0.585449
697,-2.81277e-37,-0.0563286,-0.00431316,10.0233,-1.19426,0.214301,4.02856,-4.10889,-0.592041
698,-2.81464e-37,-0.0520012,-0.0142055,9.98371,-1.07426,0.130543,-6.3418,-4.09009,-0.591309
699,-2.81651e-37,-0.0603843,0.00741035,10.0047,-1.10641,0.292169,5.49878,-4.10986,-0.589844
700,-2.81838e-37,-0.0558279,0.00266086,10.0321,-1.1354,0.197627,-0.835938,-4.11963,-0.592285
701,-2.82024e-37,-0.0477453,-0.0170023,9.99878,-1.08307,0.0640228,2.88574,-4.11719,-0.589355
702,-2.82211e-37,-0.0565289,-0.0261079,9.98297,-1.10661,0.173959,5.64722,-4.10278,-0.591064
703,-2.82398e-37,-0.0652268,0.00429886,10.0069,-1.19403,0.219655,4.27979,-4.10034,-0.589355
704,-2.82585e-37,-0.0523517,-0.0216946,10.0116,-1.12275,0.121399,1.93042,-4.10889,-0.588135
705,-2.82772e-37,-0.0750405,-0.000329031,10.0158,-1.10577,0.333152,1.26245,-4.08813,-0.593506
706,-2.82959e-37,-0.0439111,-0.000350523,9.99261,-1.20236,0.229107,-4.68872,-4.10181,-0.585693
707,-2.83145e-37,-0.0607133,-0.0105576,9.99867,-1.09483,0.14107,3.28711,-4.10352,-0.594727
708,-2.83332e-37,-0.0559138,0.00344052,10.008,-1.1446,0.326261,3.82007,-4.10986,-0.587402
709,-2.83519e-37,-0.0689461,-0.0134474,10.0096,-1.11896,0.210664,3.77246,-4.11353,-0.588135
710,-2.83706e-37,-0.0709777,-0.0164873,10.0057,-1.17946,0.183539,-3.57031,-4.11475,-0.591797
711,-2.83893e-37,-0.0584745,-0.00166661,9.99319,-1.12009,0.23656,-5.37988,-4.09473,-0.584717
712,-2.8408e-37,-0.0626589,-0.00446337,10.0022,-1.06081,0.113868,5.56323,-4.08765,-0.595215
713,-2.84266e-37,-0.0684098,-0.0088123,10.0091,-1.19808,0.195706,-2.24561,-4.12476,-0.587646
714,-2.84453e-37,-0.0545476,0.00927724,10.0155,-1.09322,0.205746,7.03589,-4.09058,-0.592529
715,-2.8464e-37,-0.0551055,0.0102214,10.025,-1.10925,0.327363,4.22437,-4.12939,-0.591553
716,-2.84827e-37,-0.0551556,-0.00324024,10.0162,-1.02731,0.11707,6.27759,-4.10376,-0.587891
717,-2.85014e-37,-0.0550769,-0.0113516,10.0099,-1.1571,0.215044,1.15918,-4.12085,-0.587402
718,-2.85201e-37,-0.0487538,-0.0305498,9.97282,-1.11015,0.26197,-4.80273,-4.12671,-0.585693
719,-2.85387e-37,-0.069261,0.00150925,10.0263,-1.11081,0.24906,6.90845,-4.10474,-0.593506
720,-2.85574e-37,-0.0690607,-0.000650909,10.0004,-1.09383,0.258179,4.85742,-4.13232,-0.5896
721,-2.85761e-37,-0.0426596,0.00427025,10.0276,-1.09091,0.173549,-4.77124,-4.1189,-0.58667
722,-2.85948e-37,-0.0314153,0.00825438,9.99896,-1.19462,0.120144,-7.68481,-4.09766,-0.5896
723,-2.86135e-37,-0.0695758,-0.0142127,9.99571,-1.16301,0.161741,3.7251,-4.11719,-0.587158
724,-2.86322e-37,-0.0617147,-0.0149423,9.95907,-1.21908,0.145655,-1.07495,-4.12842,-0.59082
725,-2.86508e-37,-0.0570439,-0.0142699,9.98528,-1.17992,0.27406,1.34229,-4.10034,-0.586914
726,-2.86695e-37,-0.0635888,0.0170595,9.98555,-1.14378,0.234153,7.75562,-4.1106,-0.590332
727,-2.86882e-37,-0.0441187,-0.013197,10.0267,-1.06668,0.222268,3.35547,-4.11548,-0.591309
728,-2.87069e-37,-0.058732,0.0121384,9.98543,-1.1842,0.152264,2.72461,-4.1145,-0.586182
729,-2.87256e-37,-0.0704412,0.0131827,10.0058,-1.18865,0.302312,-1.79907,-4.10547,-0.59082
730,-2.87443e-37,-0.067015,0.00447768,10.0032,-1.14429,0.260868,4.6145,-4.11548,-0.58667
731,-2.87629e-37,-0.0687388,-0.00859056,9.99071,-1.08945,0.218425,-6.67139,-4.11011,-0.590332
732,-2.87816e-37,-0.0379744,-0.00978509,9.9932,-1.09765,0.162356,-5.76099,-4.12402,-0.588867
733,-2.88003e-37,-0.0512074,-0.00868354,9.99882,-1.16947,0.0750625,-1.02539,-4.09546,-0.588135
734,-2.8819e-37,-0.0662782,-0.0147492,10.0164,-1.23466,0.17588,4.03931,-4.14795,-0.589844
735,-2.88377e-37,-0.0626875,-0.0132971,10.0058,-1.21135,0.222063,0.262451,-4.1167,-0.588623
736,-2.88564e-37,-0.0576805,0.00479956,9.99549,-1.21158,0.150445,1.86719,-4.10083,-0.592529
737,-2.8875e-37,-0.0505921,0.00726014,9.99248,-1.06901,0.218092,-2.50806,-4.09326,-0.587891
738,-2.88937e-37,-0.0707488,0.00508567,9.97908,-1.18993,0.217478,-4.03979,-4.11646,-0.589844
739,-2.89124e-37,-0.0639822,-0.00218877,9.99515,-1.22316,0.0447353,6.7478,-4.1333,-0.588135
740,-2.89311e-37,-0.0841246,-0.0143486,10.0008,-1.0601,0.12834,2.41333,-4.14819,-0.588379
741,-2.89498e-37,-0.0751978,-0.0284325,10.0142,-1.06745,0.191582,-5.00586,-4.10034,-0.591064
742,-2.89685e-37,-0.0477737,-0.0133115,9.98914,-1.12941,0.271037,-4.94287,-4.1084,-0.58667
743,-2.89871e-37,-0.0728232,-0.00227458,10.0161,-1.13673,0.183641,4.13452,-4.10938,-0.590576
744,-2.90058e-37,-0.0588607,0.0145203,10.0187,-1.19805,0.23761,-7.19922,-4.10767,-0.588379
745,-2.90245e-37,-0.0491115,-0.0163156,10.0023,-1.12093,0.132541,-5.87476,-4.14893,-0.5896
746,-2.90432e-37,-0.0700334,0.000715273,10.0116,-1.14913,0.174471,-7.09326,-4.1394,-0.589355
747,-2.90619e-37,-0.0629522,0.00760347,10.0036,-1.21645,0.316144,3.17114,-4.09521,-0.586426
748,-2.90806e-37,-0.0574588,-0.00358357,9.99147,-1.17247,0.245833,-5.03247,-4.08838,-0.591797
749,-2.90992e-37,-0.0670366,-0.00592968,9.9949,-1.18993,0.224931,6.552,-4.11279,-0.585938
750,-2.91179e-37,-0.0407712,0.0123673,10.0164,-1.14137,0.162945,-3.6333,-4.10669,-0.593262
751,-2.91366e-37,-0.0331892,-0.0109367,10.0138,-1.19093,0.185383,-2.32153,-4.10693,-0.591309
752,-2.91553e-37,-0.0696828,-0.00267519,9.98668,-1.26936,0.173139,6.69214,-4.09985,-0.588135
753,-2.9174e-37,-0.0616933,-0.0101284,10.0323,-1.09842,0.205439,2.3396,-4.13232,-0.59082
754,-2.91927e-37,-0.0340334,-0.0204571,10.0188,-1.02705,0.121424,-4.69971,-4.09399,-0.588623
755,-2.92113e-37,-0.0726657,-0.0020028,10.0003,-1.09503,0.11146,7.38843,-4.11084,-0.592285
756,-2.923e-37,-0.0658062,-0.00122314,10.0118,-1.18799,0.253671,-3.64624,-4.09692,-0.588379
757,-2.92487e-37,-0.0658205,0.00143057,9.99205,-1.14647,0.244962,-6.27026,-4.12769,-0.587891
758,-2.92674e-37,-0.0579094,-0.00155217,10.0327,-1.21437,0.272215,6.44165,-4.13965,-0.5896
759,-2.92861e-37,-0.0761849,0.00525734,10.0057,-1.08891,0.121091,7.76611,-4.11841,-0.588135
760,-2.93048e-37,-0.0721938,-0.0180466,10.003,-1.12231,0.108438,-7.2146,-4.09595,-0.594727
761,-2.93234e-37,-0.0786169,0.00650909,10.0136,-1.20384,0.162356,-7.46338,-4.10645,-0.586914
762,-2.93421e-37,-0.0597835,-0.00454206,9.98881,-1.16942,0.0955795,7.45947,-4.12476,-0.593018
763,-2.93608e-37,-0.0442403,0.00990669,10.0097,-1.17608,0.16712,3.03101,-4.10815,-0.590332
764,-2.93795e-37,-0.0621654,-0.0027753,9.99128,-1.17995,0.172038,-4.2959,-4.12109,-0.589355
765,-2.93982e-37,-0.0679164,0.00359789,9.98483,-1.18182,0.0969115,3.86792,-4.1062,-0.591553
766,-2.94169e-37,-0.0792249,-0.00158078,9.99523,-1.06991,0.0606929,-7.6665,-4.11133,-0.588623
767,-2.94355e-37,-0.0580382,0.00332607,10.0205,-1.10651,0.147039,-3.7207,-4.15112,-0.591309
768,-2.94542e-37,-0.0592543,0.000722463,9.98527,-1.23842,0.179441,-6.62891,-4.10254,-0.586914
769,-2.94729e-37,-0.0558349,-0.00716002,9.99009,-1.11056,0.172397,0.829346,-4.10962,-0.590332
770,-2.94916e-37,-0.0470371,-0.0134116,9.99891,-1.18194,0.210664,0.420898,-4.11743,-0.590332
771,-2.95103e-37,-0.0611997,-0.00331892,10.0334,-1.1615,0.211971,-4.90015,-4.10083,-0.59082
772,-2.9529e-37,-0.0533602,-0.00580096,9.99838,-1.12754,0.307307,6.19824,-4.09155,-0.590332
773,-2.95476e-37,-0.0740247,0.00628018,9.98867,-1.20059,0.206848,-6.62378,-4.1377,-0.589111
774,-2.95663e-37,-0.0726371,0.00361934,9.99598,-1.23591,0.222396,-7.51343,-4.10815,-0.591553
775,-2.9585e-37,-0.0528451,-0.00416296,10.003,-1.16066,0.0717071,6.76587,-4.11572,-0.588379
776,-2.96037e-37,-0.0550271,-0.00116587,10.0091,-1.11788,0.197499,1.47241,-4.08813,-0.587891
777,-2.96224e-37,-0.0512072,0.00015021,9.98741,-1.08159,0.221781,6.49634,-4.1106,-0.593262
778,-2.9641e-37,-0.0429385,0.00979939,10.002,-1.15121,0.160512,-6.89038,-4.10327,-0.588379
779,-2.96597e-37,-0.0606919,0.000207432,9.97473,-1.15707,0.21968,7.43872,-4.10913,-0.588135
780,-2.96784e-37,-0.0555919,-0.014413,9.98975,-1.1459,0.258384,-2.47998,-4.1062,-0.585693
781,-2.96971e-37,-0.058124,-0.00980655,9.99792,-1.1416,0.205183,6.73975,-4.09619,-0.589111
782,-2.97158e-37,-0.0717645,0.0162083,9.99576,-1.16645,0.166505,6.18237,-4.11108,-0.587158
783,-2.97345e-37,-0.056908,0.0135904,9.97748,-1.154,0.17985,-7.17847,-4.12329,-0.585449
784,-2.97531e-37,-0.0517079,-0.00695972,9.99541,-1.07918,0.158437,5.91602,-4.10791,-0.589355
785,-2.97718e-37,-0.055599,-0.0211796,10.0066,-1.11944,0.191249,-2.20068,-4.11914,-0.584961
786,-2.97905e-37,-0.0540253,-0.00378387,9.98883,-1.06665,0.0982434,-0.861816,-4.1001,-0.590576
787,-2.98092e-37,-0.0489612,-0.00921286,10.005,-1.11747,0.211279,-4.73657,-4.10547,-0.588135
788,-2.98279e-37,-0.048625,-0.0234256,9.98859,-1.16947,0.26886,6.24023,-4.11523,-0.590332
789,-2.98466e-37,-0.0548981,-0.0109653,9.99221,-1.15308,0.291708,-7.87769,-4.11035,-0.592041
790,-2.98652e-37,-0.0761277,-0.00278246,10.0116,-1.14216,0.221269,0.822021,-4.10376,-0.586914
791,-2.98839e-37,-0.0487824,-0.000350489,9.99975,-1.15874,0.294269,-5.9585,-4.12524,-0.593506
792,-2.99026e-37,-0.0554058,0.00374806,10.0244,-1.17354,0.21279,-3.78662,-4.10986,-0.5896
793,-2.99213e-37,-0.0739462,0.0168021,10.0075,-1.13453,0.260074,-1.11523,-4.10669,-0.589844
794,-2.994e-37,-0.0778873,-0.00733882,10.0229,-1.15369,0.166633,0.787598,-4.11719,-0.588379
795,-2.99587e-37,-0.0681237,-0.00756771,9.98636,-1.13492,0.292707,-0.0649414,-4.10767,-0.588135
796,-2.99773e-37,-0.0539324,-0.000672367,9.98043,-1.1664,0.294423,-4.57056,-4.11206,-0.591797
797,-2.9996e-37,-0.0598908,-0.0132757,9.99177,-1.10397,0.0868195,4.83618,-4.09302,-0.585449
798,-3.00147e-37,-0.0618365,-0.00437751,9.98207,-1.24145,0.1736,4.15527,-4.09375,-0.590332
799,-3.00334e-37,-0.0512499,-0.0151712,9.99586,-1.23284,0.121322,-3.17114,-4.09912,-0.588867
800,-3.00521e-37,-0.0567864,-0.00785382,9.98219,-1.20702,0.314889,-3.96289,-4.09546,-0.588867
801,-3.00708e-37,-0.0654914,-0.00100855,10.0127,-1.23056,0.231642,7.42847,-4.13257,-0.593018
802,-3.00894e-37,-0.0636818,-0.00284683,9.99985,-1.15028,0.290991,7.13794,-4.11938,-0.588379
803,-3.01081e-37,-0.0531171,0.00832593,9.98889,-1.17859,0.180721,5.72046,-4.11865,-0.593262
804,-3.01268e-37,-0.0602198,-0.0114374,9.98443,-1.22106,0.116558,0.0856934,-4.13354,-0.590088
805,-3.01455e-37,-0.062523,-0.00261794,9.98769,-1.18799,0.220859,-2.22876,-4.09766,-0.590088
806,-3.01642e-37,-0.0498482,-0.0133973,9.98857,-1.05374,0.139662,5.83374,-4.09375,-0.587158
807,-3.01829e-37,-0.059669,0.00921286,9.98612,-1.01445,0.162228,1.32056,-4.09229,-0.589111
808,-3.02015e-37,-0.0628806,-0.00899112,9.97267,-1.21583,0.214148,5.63892,-4.09692,-0.591064
809,-3.02202e-37,-0.0524376,-0.00145917,9.97418,-1.15612,0.102034,1.93555,-4.11279,-0.587891
810,-3.02389e-37,-0.0444622,0.011466,10.0041,-1.20851,0.238686,0.82959,-4.10962,-0.59082
811,-3.02576e-37,-0.0658062,0.00077966,9.97097,-1.14982,0.179825,-2.33203,-4.09912,-0.587646
812,-3.02763e-37,-0.0362291,0.00209578,10.0219,-1.14175,0.177289,-3.63867,-4.10278,-0.587891
813,-3.0295e-37,-0.0560997,-0.0135117,10.0122,-1.10759,0.327363,-6.61353,-4.08301,-0.588867
814,-3.03136e-37,-0.0622512,0.0234685,9.98598,-1.18115,0.293629,-0.325928,-4.1084,-0.588135
815,-3.03323e-37,-0.0612856,0.0190337,10.006,-1.12213,0.311405,-2.53271,-4.10596,-0.594482
816,-3.0351e-37,-0.0687674,-0.00188835,10.0105,-1.20769,0.0109245,-3.46729,-4.11328,-0.588379
817,-3.03697e-37,-0.0592828,0.0135046,9.98169,-1.15543,0.159641,-6.13574,-4.11841,-0.587891
818,-3.03884e-37,-0.0689105,-0.0025178,10.0035,-1.19201,0.266093,5.11914,-4.10034,-0.588379
819,-3.04071e-37,-0.0874505,-0.0100855,10.0023,-1.18704,0.243553,-5.68164,-4.10498,-0.58667
820,-3.04257e-37,-0.0694614,0.00148066,9.98978,-1.22421,0.169374,6.39087,-4.11011,-0.590332
821,-3.04444e-37,-0.039076,0.0141126,9.998,-1.13394,0.178749,0.4104,-4.10962,-0.587646
822,-3.04631e-37,-0.0622226,-0.0222453,9.9908,-1.20026,0.237687,7.12231,-4.10767,-0.592529
823,-3.04818e-37,-0.0563072,0.021995,9.99367,-1.11409,0.227621,7.06421,-4.13477,-0.591064
824,-3.05005e-37,-0.0560568,-0.0137835,10,-1.08499,0.115226,0.148926,-4.1416,-0.587646
825,-3.05192e-37,-0.053303,0.00109438,10.0153,-1.11601,0.16397,3.98633,-4.11646,-0.593262
826,-3.05378e-37,-0.0550769,0.00971356,9.99452,-1.12856,0.225982,1.42334,-4.09082,-0.584717
827,-3.05565e-37,-0.0596762,0.00624443,10.0201,-1.12682,0.0659695,5.11133,-4.12573,-0.594971
828,-3.05752e-37,-0.0648046,0.00314723,10.0031,-1.15951,0.13021,-6.30981,-4.10596,-0.589355
829,-3.05939e-37,-0.0793679,0.00705986,9.98692,-1.16783,0.115431,2.87793,-4.11133,-0.589111
830,-3.06126e-37,-0.0568365,-0.00954189,10.0445,-1.18878,0.181643,6.19531,-4.0896,-0.593262
831,-3.06313e-37,-0.0636245,-0.00633027,10.0081,-1.21929,0.228517,4.54102,-4.13086,-0.587891
832,-3.06499e-37,-0.0634815,-0.00296843,9.98475,-1.274,0.176956,3.93359,-4.11621,-0.59082
833,-3.06686e-37,-0.0566792,-0.0126534,10.0023,-1.18012,0.212995,5.56445,-4.15112,-0.588379
834,-3.06873e-37,-0.0548192,-0.00374097,9.9798,-1.11209,0.18797,0.286133,-4.09546,-0.5896
835,-3.0706e-37,-0.0594115,-0.00334038,10.004,-1.04611,0.213533,-7.8147,-4.11841,-0.589355
836,-3.07247e-37,-0.0564359,-0.00710277,10.0204,-1.1665,0.198805,-1.39282,-4.0957,-0.588867
837,-3.07434e-37,-0.071557,0.00226745,10.018,-1.19887,0.135871,-7.20703,-4.10181,-0.593262
838,-3.0762e-37,-0.0678947,0.00189548,10.009,-0.987557,0.158898,5.65747,-4.1106,-0.592773
839,-3.07807e-37,-0.0642828,0.00803266,9.99536,-1.05105,0.139124,-7.10132,-4.10229,-0.59082
840,-3.07994e-37,-0.0447981,0.0167806,10.0047,-1.1541,0.0524195,-7.50537,-4.11401,-0.588379
841,-3.08181e-37,-0.0615001,0.0137048,10.0115,-1.19157,0.12501,-4.71313,-4.12305,-0.591553
842,-3.08368e-37,-0.0659421,0.0186117,10.029,-1.16332,0.207181,-1.02539,-4.09546,-0.589844
843,-3.08555e-37,-0.068982,-0.00464935,10.0111,-1.12024,0.119734,2.1416,-4.10986,-0.588135
844,-3.08741e-37,-0.0490684,-0.0146419,10.0214,-1.17795,0.116276,3.40625,-4.11377,-0.591553
845,-3.08928e-37,-0.0700192,0.00442046,10.0276,-1.17854,0.20987,7.71313,-4.14941,-0.586914
846,-3.09115e-37,-0.0628449,0.0038983,10.0206,-1.15448,0.090969,3.71704,-4.11133,-0.593262
847,-3.09302e-37,-0.0601839,-0.0147993,9.99783,-1.17408,0.213764,-7.45557,-4.1123,-0.593994
848,-3.09489e-37,-0.0646404,0.00566508,9.99722,-1.16002,0.184615,5.43311,-4.09985,-0.589111
849,-3.09676e-37,-0.0639319,0.01025,9.95373,-1.13791,0.159359,4.52051,-4.09253,-0.591797
850,-3.09862e-37,-0.0680164,0.00611568,10.0347,-1.09719,0.133079,7.69458,-4.10449,-0.589355
851,-3.10049e-37,-0.0800832,0.0081757,9.99426,-1.05892,0.188021,4.08911,-4.11499,-0.588623
852,-3.10236e-37,-0.0601196,-0.000693826,9.99736,-1.08817,0.242964,-3.58789,-4.13232,-0.586182
853,-3.10423e-37,-0.0601339,0.0241122,10.0326,-1.22708,0.230746,1.32056,-4.18604,-0.588867
854,-3.1061e-37,-0.0654485,0.00849042,10.025,-1.05794,0.240274,-4.87939,-4.11646,-0.590576
855,-3.10797e-37,-0.0525305,-0.00881946,10.0211,-1.03838,0.0623579,2.08105,-4.13501,-0.588135
856,-3.10983e-37,-0.0750047,0.00341191,10.0245,-1.10198,0.100472,1.14355,-4.10913,-0.59375
857,-3.1117e-37,-0.0742751,0.00111584,9.99108,-1.27223,0.295832,5.18994,-4.11426,-0.585693
858,-3.11357e-37,-0.042352,-0.0101785,10.0237,-1.24483,0.23802,-1.01245,-4.10522,-0.594482
859,-3.11544e-37,-0.0242195,0.010765,9.99786,-1.06804,0.0601294,-7.72705,-4.13647,-0.591553
860,-3.11731e-37,-0.056064,0.0149137,10.0165,-1.04381,0.158667,-7.29443,-4.11499,-0.586914
861,-3.11918e-37,-0.0814637,0.0136476,9.99745,-1.11642,0.148627,1.42456,-4.0918,-0.590576
862,-3.12104e-37,-0.0574587,0.0110583,9.98304,-1.28235,0.181054,-5.87451,-4.08643,-0.587158
863,-3.12291e-37,-0.056815,-0.0145703,9.96848,-1.15326,0.156465,-5.68677,-4.10107,-0.593262
864,-3.12478e-37,-0.0560926,-0.00282537,9.99083,-1.14462,0.104442,2.7644,-4.10498,-0.588135
865,-3.12665e-37,-0.0553417,-0.00407711,10.0261,-1.00085,0.130543,5.03662,-4.11743,-0.588867
866,-3.12852e-37,-0.0500484,0.0114803,10.012,-1.15856,0.230592,-0.0969238,-4.12305,-0.585938
867,-3.13039e-37,-0.0768645,0.00698117,9.97586,-1.25761,0.22821,0.552979,-4.09863,-0.584473
868,-3.13225e-37,-0.0598118,0.0165874,10.002,-1.23958,0.197985,-7.50439,-4.08374,-0.593506
869,-3.13412e-37,-0.0687601,-0.0162584,10.0102,-1.12026,0.140148,6.32812,-4.10205,-0.588867
870,-3.13599e-37,-0.0694183,0.0132256,9.99995,-1.00731,0.104877,1.52783,-4.09033,-0.592529
871,-3.13786e-37,-0.0584818,-0.00643754,10.0123,-0.997265,0.161383,-5.89478,-4.10205,-0.590576
872,-3.13973e-37,-0.0447983,0.0196059,10.0167,-1.22277,0.300365,-1.16797,-4.10645,-0.589111
873,-3.1416e-37,-0.0643327,-0.0141555,10.0041,-1.18955,0.256667,-1.84399,-4.11108,-0.594238
874,-3.14346e-37,-0.0777013,0.0123887,9.98581,-1.03233,0.1965,-4.58105,-4.10425,-0.587158
875,-3.14533e-37,-0.0545404,-0.0120525,10.02,-0.983945,0.121911,-2.84399,-4.1084,-0.593262
876,-3.1472e-37,-0.0521299,-7.15284e-06,9.97944,-1.22362,0.0962711,-3.52734,-4.10718,-0.588135
877,-3.14907e-37,-0.0411002,0.0197347,10.0236,-1.26647,0.159052,-5.32495,-4.12817,-0.588379
878,-3.15094e-37,-0.0627449,0.018812,10.0011,-1.18082,0.342526,5.55176,-4.11011,-0.592529
879,-3.15281e-37,-0.0650553,0.000135944,10.0152,-1.03804,0.268117,-2.32935,-4.10107,-0.587646
880,-3.15467e-37,-0.0596548,-0.00351919,10.0057,-1.10098,0.155773,5.93408,-4.15283,-0.591797
881,-3.15654e-37,-0.0636102,-0.00783236,10.0108,-1.07116,0.0459647,-7.05884,-4.09473,-0.586426
882,-3.15841e-37,-0.0511285,0.00411288,10.0094,-1.15825,0.29012,7.00659,-4.09937,-0.591797
883,-3.16028e-37,-0.0571155,0.0103645,10.0049,-1.15431,0.223292,4.021,-4.10303,-0.589355
884,-3.16215e-37,-0.083395,0.00590825,10.0187,-1.0436,0.150343,6.75781,-4.10986,-0.591309
885,-3.16402e-37,-0.0652341,-0.00200993,9.95332,-0.984662,0.155081,-7.71655,-4.11304,-0.594238
886,-3.16588e-37,-0.0632597,-0.00218877,10.0073,-1.04381,0.177699,2.60913,-4.1062,-0.587402
887,-3.16775e-37,-0.0614502,-0.0233969,10.0155,-1.13338,0.119554,6.85571,-4.10449,-0.591797
888,-3.16962e-37,-0.0597978,-0.0122457,10.0045,-1.17344,0.245218,4.0918,-4.11694,-0.589844
889,-3.17149e-37,-0.063317,-0.010765,9.98264,-1.1414,0.21694,-4.52246,-4.1084,-0.59082
890,-3.17336e-37,-0.0845825,-0.009735,10.0103,-1.09488,0.17629,2.35034,-4.10889,-0.591797
891,-3.17523e-37,-0.0437826,0.00210294,10.0393,-1.09001,0.0602575,-2.41528,-4.08398,-0.587402
892,-3.17709e-37,-0.0435466,0.0196346,10.0107,-1.15413,0.216223,-7.9856,-4.13916,-0.592529
893,-3.17896e-37,-0.0674012,0.00627304,10.0102,-1.20459,0.217068,-1.2002,-4.12183,-0.585693
894,-3.18083e-37,-0.0694324,-0.0033118,10.0127,-1.16335,0.183206,2.06812,-4.09399,-0.590576
895,-3.1827e-37,-0.063553,-0.0177176,9.99977,-1.08884,0.114534,-3.95483,-4.10132,-0.590332
896,-3.18457e-37,-0.065892,0.0040199,9.99215,-1.07055,0.0858973,-5.61719,-4.08276,-0.587402
897,-3.18644e-37,-0.057001,0.00392691,9.99629,-1.07303,0.231591,0.00463867,-4.08911,-0.590332
898,-3.1883e-37,-0.0395052,0.00838313,10.0087,-1.19373,0.143811,-1.4104,-4.09058,-0.583252
899,-3.19017e-37,-0.0666289,-0.00347626,9.9973,-1.1145,0.173754,1.19165,-4.10547,-0.591064
900,-3.19204e-37,-0.0576662,-0.00432747,9.99393,-1.032,0.157079,5.54419,-4.10425,-0.587891
901,-3.19391e-37,-0.0557206,-0.0270807,9.99999,-1.04565,0.164379,-0.321045,-4.1123,-0.588135
902,-3.19578e-37,-0.0527236,-0.0205644,10.0087,-1.15733,0.142479,-5.24878,-4.11475,-0.590576
903,-3.19765e-37,-0.0640537,-0.00638034,9.99975,-1.16143,0.221012,-5.79004,-4.16504,-0.588379
904,-3.19951e-37,-0.0625232,-0.00148061,9.99339,-1.10928,0.172294,-4.69165,-4.09985,-0.591797
905,-3.20138e-37,-0.064962,-0.00118739,10.0047,-1.08146,0.209153,-7.42603,-4.12622,-0.584229
906,-3.20325e-37,-0.0522371,0.0203498,9.9771,-1.11237,0.22009,6.29297,-4.11548,-0.594727
907,-3.20512e-37,-0.0635101,-0.0133901,10.0034,-1.10956,0.295294,4.2876,-4.1062,-0.589355
908,-3.20699e-37,-0.0658134,-0.0132256,10.0036,-1.08812,0.301287,-7.13599,-4.14697,-0.587646
909,-3.20886e-37,-0.0668791,0.000350489,10.0134,-1.15279,0.273957,-1.88379,-4.12061,-0.592285
910,-3.21072e-37,-0.0523089,-0.00738886,10.0072,-1.08666,0.205926,3.43799,-4.09839,-0.585693
911,-3.21259e-37,-0.0683956,-0.00279674,9.97628,-1.09209,0.268911,-4.60767,-4.12354,-0.592285
912,-3.21446e-37,-0.0685028,0.0112085,10.0195,-1.11471,0.244116,-0.936279,-4.12305,-0.587646
913,-3.21633e-37,-0.0712636,-0.020822,9.99988,-1.11637,0.215531,-7.15942,-4.09814,-0.590332
914,-3.2182e-37,-0.0715714,-0.013805,9.99195,-1.1811,0.11479,1.29175,-4.10205,-0.589111
915,-3.22007e-37,-0.0686674,0.00208865,9.99846,-1.12941,0.234229,-6.55029,-4.12231,-0.585693
916,-3.22193e-37,-0.0597332,-0.0220451,10.0137,-1.04921,0.17045,-6.18677,-4.08789,-0.593018
917,-3.2238e-37,-0.0688032,-0.00663784,9.98648,-1.21934,0.214788,2.5188,-4.11743,-0.585205
918,-3.22567e-37,-0.0660279,0.0050213,9.99605,-1.12636,0.28282,-3.67578,-4.11426,-0.588379
919,-3.22754e-37,-0.0536892,-0.00523588,10.0061,-1.10838,0.146834,-5.66333,-4.11865,-0.587646
920,-3.22941e-37,-0.046286,-0.0133472,10.0016,-1.19347,0.212688,0.0229492,-4.12549,-0.5896
921,-3.23128e-37,-0.0561354,-0.00710279,10.0082,-1.04363,0.141096,0.460205,-4.10791,-0.5896
922,-3.23314e-37,-0.0504919,-0.00832591,9.99538,-1.11435,0.1079,-2.30884,-4.1167,-0.585693
923,-3.23501e-37,-0.0521658,-0.0100998,9.98419,-1.18515,0.176034,-6.98828,-4.13989,-0.593018
924,-3.23688e-37,-0.0681451,0.0150639,9.99914,-1.2593,0.172243,-1.5376,-4.10474,-0.5896
925,-3.23875e-37,-0.0545905,-0.0142556,9.98775,-1.13709,0.262994,-7.67676,-4.10352,-0.594727
926,-3.24062e-37,-0.0698976,0.00114445,9.98264,-1.12797,0.108335,5.0061,-4.12524,-0.593262
927,-3.24249e-37,-0.0630738,-0.00468511,9.99884,-1.10116,0.25864,3.08374,-4.1084,-0.58667
928,-3.24435e-37,-0.0693252,0.0125174,9.9961,-1.09867,0.26781,3.36328,-4.12134,-0.592529
929,-3.24622e-37,-0.0604201,-0.0136834,10.0128,-1.13348,0.217222,2.84058,-4.15405,-0.583496
930,-3.24809e-37,-0.0608634,-0.0096349,10.0119,-1.15845,0.190147,-7.8645,-4.12012,-0.593994
931,-3.24996e-37,-0.0747257,-0.00273954,9.96654,-1.174,0.227647,0.180908,-4.12622,-0.588867
932,-3.25183e-37,-0.0576234,0.00761063,9.98741,-1.1404,0.233,-5.27197,-4.15967,-0.590088
933,-3.2537e-37,-0.0604129,0.0189479,9.99867,-1.15487,0.243937,6.38867,-4.1394,-0.591309
934,-3.25556e-37,-0.0639393,-0.00747472,10.0021,-1.10887,0.065534,5.08716,-4.11572,-0.586182
935,-3.25743e-37,-0.0600839,0.0121527,9.97403,-1.0769,0.276314,-0.165527,-4.11108,-0.592285
936,-3.2593e-37,-0.0504204,0.0155789,10.0029,-1.24611,0.194912,0.866699,-4.12939,-0.587891
937,-3.26117e-37,-0.055456,-0.00509998,9.99236,-1.13866,0.180286,-4.76855,-4.12085,-0.588867
938,-3.26304e-37,-0.0633313,-0.000271808,9.99691,-1.19091,0.146373,-3.66553,-4.12207,-0.592285
939,-3.26491e-37,-0.0637819,0.000736743,10.0029,-1.20879,0.195834,5.75537,-4.10522,-0.587891
940,-3.26677e-37,-0.0716501,0.0120383,10.0011,-1.151,0.240915,5.40918,-4.12109,-0.594482
941,-3.26864e-37,-0.0589037,0.00192411,9.99821,-1.19513,0.242042,-3.77832,-4.11572,-0.589111
942,-3.27051e-37,-0.0546906,-0.0217876,9.98553,-1.22252,0.118709,2.55347,-4.104,-0.591797
943,-3.27238e-37,-0.0545047,0.00555061,10.0125,-1.16993,0.17816,-5.97485,-4.12109,-0.590088
944,-3.27425e-37,-0.0803052,0.00590113,10.0066,-1.16688,0.185639,-1.03931,-4.09326,-0.592529
945,-3.27611e-37,-0.0595903,-0.0155503,9.99466,-1.16284,0.274597,-1.57227,-4.11816,-0.591797
946,-3.27798e-37,-0.0490614,-0.0172598,9.99678,-1.0656,0.234537,-0.776611,-4.09351,-0.587646
947,-3.27985e-37,-0.0602412,-0.00534317,9.98012,-1.11875,0.0535978,-7.76416,-4.1167,-0.59375
948,-3.28172e-37,-0.0535819,0.0130969,9.9835,-1.29995,0.152981,4.32983,-4.12988,-0.587158
949,-3.28359e-37,-0.0632526,-0.018905,10.0192,-1.1019,0.158309,2.15454,-4.08838,-0.5896
950,-3.28546e-37,-0.0728159,0.00385538,10.0044,-1.156,0.267682,7.70801,-4.11426,-0.588867
951,-3.28732e-37,-0.0620795,-0.0245486,10.0226,-1.14823,0.197063,5.34058,-4.10913,-0.585938
952,-3.28919e-37,-0.0714497,0.00409858,9.99387,-1.20172,0.162151,-2.74634,-4.10303,-0.5896
953,-3.29106e-37,-0.0436896,-0.00635172,9.98389,-1.17231,0.161434,5.98193,-4.14917,-0.587646
954,-3.29293e-37,-0.0646402,-0.0144559,10.0083,-1.12531,0.179031,3.66992,-4.11499,-0.59082
955,-3.2948e-37,-0.0383035,-0.00597978,10.031,-1.17557,0.288711,1.34741,-4.10425,-0.588379
956,-3.29667e-37,-0.0473447,-0.00231037,10.0075,-1.20097,0.197652,-0.743408,-4.11035,-0.588623
957,-3.29853e-37,-0.0661423,-0.0122814,10.0206,-1.19063,0.297727,3.88086,-4.08472,-0.592285
958,-3.3004e-37,-0.0605703,-0.0127535,10.0024,-1.16663,0.204209,-1.68579,-4.11182,-0.588135
959,-3.30227e-37,-0.0672582,0.00322593,10.0181,-1.20827,0.082004,-5.39429,-4.21753,-0.590088
960,-3.30414e-37,-0.0626804,-0.00457067,9.98753,-1.107,0.188149,-7.14673,-4.10791,-0.588623
961,-3.30601e-37,-0.0561282,-0.00924865,10.0076,-1.13953,0.236765,-2.20068,-4.11914,-0.59082
962,-3.30788e-37,-0.059769,-0.0107364,9.99457,-1.16486,0.197985,-3.99512,-4.11084,-0.589844
963,-3.30974e-37,-0.0517364,-0.000407723,10.0134,-1.11906,0.0915069,-2.63062,-4.11133,-0.588379
964,-3.31161e-37,-0.0738531,0.00371948,10.0083,-1.14165,0.228261,-3.90503,-4.09961,-0.591064
965,-3.31348e-37,-0.0483318,-0.0108366,10.0124,-1.13428,0.180004,-1.80933,-4.12891,-0.587891
966,-3.31535e-37,-0.0299129,0.0130682,10.0411,-1.17621,0.306513,5.19531,-4.08691,-0.592041
967,-3.31722e-37,-0.048389,-0.0142628,9.99009,-1.1508,0.105979,-6.66382,-4.11597,-0.591553
968,-3.31909e-37,-0.0748974,-0.0062945,10.0059,-1.15218,0.19171,-5.29004,-4.09204,-0.587891
969,-3.32095e-37,-0.0514719,0.00072959,10.0023,-1.12367,-0.0188777,7.90112,-4.10156,-0.593506
970,-3.32282e-37,-0.0467724,0.0197061,10.0133,-1.19347,0.11333,6.76074,-4.11182,-0.585693
971,-3.32469e-37,-0.0496765,0.0088123,9.9894,-1.18894,0.126855,-7.86304,-4.08984,-0.593262
972,-3.32656e-37,-0.0566503,0.00386251,9.97385,-1.21045,0.188482,3.07617,-4.10254,-0.589355
973,-3.32843e-37,-0.0540898,0.00765354,9.99711,-1.1656,0.159922,4.9104,-4.10132,-0.590576
974,-3.3303e-37,-0.0451631,-0.00674513,10.0082,-1.17462,0.0577473,7.54688,-4.11157,-0.592773
975,-3.33216e-37,-0.0514146,0.0193985,10.0071,-1.23906,0.212816,-0.0651855,-4.10767,-0.587646
976,-3.33403e-37,-0.0699048,0.000586551,10.0168,-1.07808,0.18318,5.87842,-4.11938,-0.594482
977,-3.3359e-37,-0.0680879,0.00507137,10.003,-1.18796,0.241196,-5.3728,-4.13184,-0.585449
978,-3.33777e-37,-0.0790532,0.00546477,9.98827,-1.12016,0.271268,-3.09766,-4.11499,-0.593506
979,-3.33964e-37,-0.0626805,-0.000264616,9.98244,-1.18222,0.278901,-2.48291,-4.10425,-0.588135
980,-3.34151e-37,-0.0581884,-0.00786097,10.0076,-1.12318,0.219527,-7.02271,-4.12207,-0.59082
981,-3.34337e-37,-0.0689319,-0.0148851,9.99342,-1.22626,0.0816454,1.10107,-4.1167,-0.593994
982,-3.34524e-37,-0.0559495,-0.00792535,9.97663,-1.17756,0.0926595,-4.38257,-4.09546,-0.585938
983,-3.34711e-37,-0.0449342,0.014463,10.0125,-1.11043,0.0988325,1.96997,-4.09937,-0.593994
984,-3.34898e-37,-0.0752119,-0.0162298,10.0032,-1.1292,0.169528,0.378174,-4.09375,-0.5896
985,-3.35085e-37,-0.0610281,-0.00155932,9.99697,-1.12867,0.165891,6.55469,-4.11475,-0.589355
986,-3.35272e-37,-0.0778587,-0.00874077,10.0049,-1.13161,0.297394,-3.1106,-4.10522,-0.591553
987,-3.35458e-37,-0.0455422,-0.010765,10.0131,-1.1594,0.269551,-4.46997,-4.10864,-0.589111
988,-3.35645e-37,-0.0729948,-0.0020028,9.99003,-1.15602,0.223574,-3.19824,-4.11841,-0.592285
989,-3.35832e-37,-0.0783379,-0.0287902,9.99497,-1.05164,0.174087,1.05615,-4.09106,-0.584473
990,-3.36019e-37,-0.0720863,-0.00305426,9.9997,-1.23683,0.136742,7.18262,-4.11377,-0.592041
991,-3.36206e-37,-0.0501629,-0.00971356,9.99945,-1.16491,0.235151,2.49243,-4.0979,-0.589844
992,-3.36393e-37,-0.071135,0.00432747,10.0016,-1.0674,0.0834896,-1.28369,-4.09814,-0.588135
993,-3.36579e-37,-0.069876,0.00850471,10.0119,-1.10021,0.164635,-6.94067,-4.10498,-0.592773
994,-3.36766e-37,-0.0461715,0.0150567,10.0009,-1.12165,0.124319,-3.62036,-4.11646,-0.586182
995,-3.36953e-37,-0.0727371,-0.0128251,9.98644,-1.16719,0.197268,2.99146,-4.11768,-0.594971
996,-3.3714e-37,-0.0707346,-0.031029,9.98556,-1.14706,0.239711,-1.59302,-4.13379,-0.586914
997,-3.37327e-37,-0.0613283,-0.0144202,10.0112,-1.01353,0.223753,-6.52832,-4.09912,-0.594238
998,-3.37514e-37,-0.0823437,0.00374811,10.0121,-1.14037,0.195706,0.199219,-4.10864,-0.588867
999,-3.377e-37,-0.0589466,0.0150567,10.0056,-1.10976,0.197294,-0.730469,-4.12012,-0.587402
1000,-3.37887e-37,-0.0458569,0.00447053,9.99518,-1.25704,0.182489,6.96655,-4.10889,-0.594971
1001,-3.38074e-37,-0.0612355,0.00130182,10.0113,-1.08971,0.356128,7.49121,-4.14062,-0.589355
1002,-3.38261e-37,-0.0554347,0.00750336,9.97747,-1.11752,0.220142,-3.84448,-4.10571,-0.591309
1003,-3.38448e-37,-0.055127,0.00668791,10.0166,-1.19939,0.237943,5.30591,-4.12256,-0.588379
1004,-3.38635e-37,-0.0498267,-0.0133114,10.0267,-1.0341,0.27055,4.75708,-4.13574,-0.591553
1005,-3.38821e-37,-0.0607777,-0.0102214,10.0086,-1.12564,0.163201,6.77466,-4.09131,-0.592285
1006,-3.39008e-37,-0.0747758,-0.00215301,9.97088,-1.07321,0.158949,2.05664,-4.09375,-0.587646
1007,-3.39195e-37,-0.0707631,0.00561498,10.0042,-1.19352,0.231668,1.56128,-4.10718,-0.591553
1008,-3.39382e-37,-0.0302851,-0.0131255,10.0023,-1.1041,0.13979,3.83862,-4.09229,-0.587891
1009,-3.39569e-37,-0.0574375,-0.0110583,10.0413,-1.12121,0.203569,2.09644,-4.11548,-0.589844
1010,-3.39756e-37,-0.0632238,-0.00535038,9.97549,-1.1018,0.309612,-0.291748,-4.09497,-0.593262
1011,-3.39942e-37,-0.0686532,-0.0178392,10.0274,-1.15858,0.243937,6.05859,-4.09692,-0.5896
1012,-3.40129e-37,-0.0612499,0.000979965,9.99579,-1.10797,0.281846,-7.23096,-4.12305,-0.591309
1013,-3.40316e-37,-0.062337,-0.000743896,10.0181,-1.06978,0.0940171,4.65454,-4.10596,-0.588135
1014,-3.40503e-37,-0.0731448,0.00592251,10.0006,-1.11862,0.233461,-7.96484,-4.09229,-0.591553
1015,-3.4069e-37,-0.0625945,0.00185259,10.006,-1.05456,0.271626,5.83398,-4.15625,-0.589844
1016,-3.40877e-37,-0.044827,0.00862635,10.0042,-1.11248,0.228902,-7.05127,-4.13184,-0.588379
1017,-3.41063e-37,-0.0666645,-0.00800403,10.0011,-1.06056,0.295114,-6.02246,-4.12476,-0.593262
1018,-3.4125e-37,-0.065978,-0.00116589,10.0174,-1.13136,0.140865,-7.98828,-4.10596,-0.587402
1019,-3.41437e-37,-0.0713641,0.00556492,10.0001,-1.04903,0.0524451,-5.37549,-4.09863,-0.591553
1020,-3.41624e-37,-0.0555275,0.0182827,10.0067,-1.05938,0.207693,4.21899,-4.12549,-0.589111
1021,-3.41811e-37,-0.0363436,-0.00434893,10.0464,-1.16465,0.166864,1.61157,-4.10547,-0.588867
1022,-3.41998e-37,-0.0575017,-0.0215444,10.0245,-1.11463,0.220756,3.60913,-4.10889,-0.585938
1023,-3.42184e-37,-0.0648691,0.00454921,9.99196,-1.05262,0.247139,2.87793,-4.11133,-0.587402
1024,-3.42371e-37,-0.0604201,0.013898,10.0051,-1.08159,0.14627,-1.39258,-4.12695,-0.592773
1025,-3.42558e-37,-0.0439042,0.0100927,9.99962,-1.2229,0.203313,-4.31445,-4.10742,-0.584961
1026,-3.42745e-37,-0.0500556,0.00142342,10.0169,-1.20689,0.144887,-7.83789,-4.10083,-0.594238
1027,-3.42932e-37,-0.0445694,-0.00316871,10.0128,-1.17052,0.187944,-1.62769,-4.11597,-0.588623
1028,-3.43119e-37,-0.0548265,-0.00735312,9.98234,-1.06412,0.227416,-7.98535,-4.17041,-0.590576
1029,-3.43305e-37,-0.0554488,-0.0107722,9.99317,-1.21053,0.178646,1.70654,-4.09814,-0.59375
1030,-3.43492e-37,-0.0614502,-0.0100211,9.99902,-1.11737,0.202826,0.349365,-4.10352,-0.587891
1031,-3.43679e-37,-0.0637819,6.43756e-05,9.99543,-1.07649,0.207462,4.08667,-4.14429,-0.595215
1032,-3.43866e-37,-0.0682024,0.0040342,10.0056,-1.09112,0.219296,0.81665,-4.09985,-0.588623
1033,-3.44053e-37,-0.0548265,-0.0218233,9.99799,-1.17569,0.204799,-3.21851,-4.16528,-0.589355
1034,-3.4424e-37,-0.0630453,-0.00813276,10.0042,-1.15589,0.19276,-1.83594,-4.11694,-0.588135
1035,-3.44426e-37,-0.0509354,-0.00565075,10.0145,-1.20077,0.295524,0.133301,-4.09863,-0.585449
1036,-3.44613e-37,-0.0600481,-0.0111441,10.0025,-1.19326,0.288993,7.86401,-4.11304,-0.5896
1037,-3.448e-37,-0.0497695,-0.0187476,10.0166,-1.25868,0.15941,6.59961,-4.10913,-0.586914
1038,-3.44987e-37,-0.0487895,-0.00281822,10.0216,-1.13778,0.152008,-5.64185,-4.12671,-0.594482
1039,-3.45174e-37,-0.042681,0.00774653,9.9849,-1.2489,0.167863,3.98901,-4.08716,-0.588867
1040,-3.45361e-37,-0.0815424,-0.0312365,10.0201,-1.14982,0.135615,7.86108,-4.11108,-0.588135
1041,-3.45547e-37,-0.0509068,0.00756771,9.99643,-1.12677,0.269731,3.18384,-4.10498,-0.592041
1042,-3.45734e-37,-0.0342621,0.0013805,9.98307,-1.1707,0.151649,-5.21899,-4.09741,-0.585205
1043,-3.45921e-37,-0.0682024,-0.00205287,10.0079,-1.06107,0.111281,4.83496,-4.09204,-0.593506
1044,-3.46108e-37,-0.0607777,-0.0081757,10.0036,-1.12254,0.12647,-0.252686,-4.12427,-0.58667
1045,-3.46295e-37,-0.0419443,-0.0154573,9.98634,-1.22088,0.218016,5.62402,-4.09375,-0.5896
1046,-3.46482e-37,-0.0463863,-0.000779623,9.98728,-1.06094,0.265709,-7.30762,-4.10522,-0.592529
1047,-3.46668e-37,-0.0745469,-0.00954905,10.002,-1.0684,0.294346,1.83008,-4.1123,-0.586426
1048,-3.46855e-37,-0.0666931,-0.011187,9.97243,-1.03223,0.216837,1.92529,-4.10498,-0.592773
1049,-3.47042e-37,-0.0795611,0.00287544,10.0084,-1.21824,0.287789,-3.41187,-4.11548,-0.587891
1050,-3.47229e-37,-0.0688604,-0.00858341,10.0125,-1.15994,0.271857,0.668701,-4.10693,-0.592773
1051,-3.47416e-37,-0.0546978,-0.00384108,10.0103,-1.17977,0.180568,-5.52539,-4.10376,-0.588867
1052,-3.47603e-37,-0.0690963,-0.00484965,9.99331,-1.15607,0.133053,-7.15137,-4.104,-0.586426
1053,-3.47789e-37,-0.0387183,-0.00924147,10.0141,-1.21009,0.0998571,-7.30444,-4.10718,-0.592041
1054,-3.47976e-37,-0.0439398,-0.0149423,10.004,-1.15525,0.223523,3.68018,-4.1228,-0.585205
1055,-3.48163e-37,-0.0446409,-0.0234613,10.0213,-1.10474,0.195731,-1.94922,-4.1106,-0.591797
1056,-3.4835e-37,-0.0558923,-0.00347628,10.0026,-1.09596,0.259254,-6.09082,-4.11279,-0.585693
1057,-3.48537e-37,-0.0602484,0.00809702,10.0011,-1.23888,0.168503,5.64673,-4.10278,-0.592285
1058,-3.48724e-37,-0.0711851,-0.000894105,9.99766,-1.16143,0.161254,2.39502,-4.10327,-0.591064
1059,-3.4891e-37,-0.0507423,0.0114875,10.0268,-1.09821,0.202775,2.87524,-4.10938,-0.587158
1060,-3.49097e-37,-0.0591469,-0.00758201,10.0086,-1.18942,0.186228,0.639404,-4.12427,-0.592773
1061,-3.49284e-37,-0.0653126,0.011981,10.0029,-1.12459,0.202314,-0.428955,-4.10986,-0.587891
1062,-3.49471e-37,-0.0627733,-0.00715284,9.98682,-1.19793,0.126675,-0.841064,-4.11572,-0.589111
1063,-3.49658e-37,-0.0612641,-0.0250278,10.0044,-1.07526,0.17214,3.78589,-4.09204,-0.59082
1064,-3.49845e-37,-0.0603414,-0.0155717,10.0158,-1.24093,0.253056,-7.29443,-4.11499,-0.589111
1065,-3.50031e-37,-0.0586462,-0.0114374,10.0038,-1.15131,0.23592,7.33081,-4.10669,-0.590332
1066,-3.50218e-37,-0.0544975,0.00242481,10.0217,-1.13486,0.252287,-7.36279,-4.10303,-0.589844
1067,-3.50405e-37,-0.0505348,0.0118236,9.99214,-1.14388,0.22173,-2.45679,-4.12378,-0.5896
1068,-3.50592e-37,-0.0591182,-0.0280606,9.99615,-1.13937,0.117761,3.70459,-4.10156,-0.587402
1069,-3.50779e-37,-0.0655127,-0.0259291,10.0153,-1.10295,0.239224,4.79712,-4.09497,-0.590332
1070,-3.50966e-37,-0.0556777,0.000422018,10.0169,-1.10715,0.218656,1.6333,-4.09082,-0.590332
1071,-3.51152e-37,-0.061121,-0.00331892,10.0071,-1.06793,0.23382,4.30029,-4.11597,-0.584717
1072,-3.51339e-37,-0.080212,-0.00618721,10.0212,-1.10587,0.176572,4.28467,-4.10425,-0.59082
1073,-3.51526e-37,-0.0572657,-0.0121026,9.98755,-1.08248,0.141327,7.33838,-4.1438,-0.583496
1074,-3.51713e-37,-0.0614356,0.0104646,9.97694,-1.11394,0.203006,1.33447,-4.09448,-0.590576
1075,-3.519e-37,-0.069683,0.0110869,9.99389,-1.18171,0.232513,-6.12817,-4.09302,-0.587891
1076,-3.52087e-37,-0.0449342,6.43756e-05,10.019,-1.12006,0.280207,-2.35376,-4.12231,-0.5896
1077,-3.52273e-37,-0.0524303,0.0041415,10.0068,-1.18599,0.220731,1.15796,-4.08862,-0.592285
1078,-3.5246e-37,-0.0545047,-0.00369802,10.0093,-1.06035,0.121091,-7.10376,-4.10034,-0.58667
1079,-3.52647e-37,-0.0813491,-0.0141627,9.99204,-1.16396,0.183667,-5.9375,-4.10962,-0.594482
1080,-3.52834e-37,-0.0710134,-0.00262509,9.9929,-1.10679,0.138407,-4.95264,-4.10059,-0.59082
1081,-3.53021e-37,-0.0743896,0.00323308,9.97184,-1.07244,0.193503,3.88354,-4.11792,-0.589844
1082,-3.53208e-37,-0.0514576,-0.0080398,9.99864,-1.15781,0.123166,0.455078,-4.104,-0.593262
1083,-3.53394e-37,-0.0778446,-0.0143987,10.0194,-1.1581,0.142915,-2.06274,-4.10425,-0.586914
1084,-3.53581e-37,-0.0547479,0.00568652,10.0166,-1.15197,0.232949,-3.17114,-4.16162,-0.591064
1085,-3.53768e-37,-0.0523375,-0.0140696,10.004,-1.14129,0.205337,-0.429199,-4.10986,-0.58667
1086,-3.53955e-37,-0.0581098,-0.00916276,9.99763,-1.09652,0.291785,4.55371,-4.10938,-0.591309
1087,-3.54142e-37,-0.05012,0.00435608,10.0081,-1.10057,0.286841,7.47388,-4.0957,-0.590576
1088,-3.54329e-37,-0.0559424,-0.00771792,10.0135,-1.20336,0.307691,-2.53809,-4.10205,-0.588135
1089,-3.54515e-37,-0.0590755,-0.00419868,10.0348,-1.14913,0.224445,-1.75635,-4.0979,-0.590332
1090,-3.54702e-37,-0.0657418,-0.00186689,10.0019,-1.1979,0.204568,-2.30591,-4.11865,-0.589111
1091,-3.54889e-37,-0.0633241,-2.86114e-05,9.9728,-1.14027,0.274213,5.64429,-4.13208,-0.592529
1092,-3.55076e-37,-0.0745684,-0.0129538,10.0319,-1.19644,0.185101,7.37036,-4.12842,-0.5896
1093,-3.55263e-37,-0.0650837,-0.00830445,10.0091,-1.11232,0.218297,-5.60547,-4.09155,-0.5896
1094,-3.5545e-37,-0.0636386,-0.00594404,10.008,-1.18584,0.164866,-6.0752,-4.09326,-0.591064
1095,-3.55636e-37,-0.0690679,0.00520012,9.98794,-1.19493,0.202621,-5.69165,-4.09717,-0.589355
1096,-3.55823e-37,-0.0494191,-0.00159507,9.99875,-1.08276,0.173447,-4.16895,-4.12964,-0.593018
1097,-3.5601e-37,-0.0570296,0.00516435,9.99263,-1.08899,0.277338,-7.38965,-4.12231,-0.586426
1098,-3.56197e-37,-0.0643396,-0.0180967,9.99771,-1.1643,0.244475,0.0778809,-4.09644,-0.589844
1099,-3.56384e-37,-0.0647046,-0.00450629,9.98565,-1.08323,0.134129,0.473633,-4.11768,-0.590088
1100,-3.56571e-37,-0.0622083,-0.00348343,10.0123,-1.06886,0.245961,0.0778809,-4.09644,-0.590088
1101,-3.56757e-37,-0.0587463,0.0127678,10.0474,-1.21522,0.159154,2.56885,-4.11572,-0.591553
1102,-3.56944e-37,-0.0812634,-0.00406281,10.0141,-1.19398,0.116839,2.1311,-4.10205,-0.588135
1103,-3.57131e-37,-0.0730377,0.00716,10.0261,-1.18976,0.217478,2.52515,-4.09106,-0.595703
1104,-3.57318e-37,-0.05218,-0.000429171,10.0014,-1.05602,0.0770604,-5.50781,-4.11743,-0.588135
1105,-3.57505e-37,-0.041658,-0.00829731,10.0173,-1.19644,0.135128,6.4436,-4.11035,-0.589111
1106,-3.57691e-37,-0.0563431,-0.0225886,10.022,-1.11304,0.227109,1.80908,-4.09668,-0.588379
1107,-3.57878e-37,-0.0513503,-0.0154358,9.96599,-1.02816,0.209256,2.78809,-4.15381,-0.5896
1108,-3.58065e-37,-0.038983,0.0278961,9.98783,-1.09339,0.315964,-2.48535,-4.10229,-0.595947
1109,-3.58252e-37,-0.0487681,0.00939168,10.0067,-1.18056,0.189737,-6.30981,-4.10596,-0.585938
1110,-3.58439e-37,-0.0629307,-0.00544331,9.99456,-1.18837,0.185229,-3.79907,-4.1001,-0.587891
1111,-3.58626e-37,-0.0649192,0.00235329,9.98326,-1.08615,0.0807233,-3.0686,-4.09766,-0.588623
1112,-3.58812e-37,-0.0599481,0.0049641,9.99165,-1.14867,0.211151,3.88086,-4.11597,-0.59082
1113,-3.58999e-37,-0.0620652,-0.00992815,10.0021,-1.20456,0.316221,4.40356,-4.1145,-0.593018
1114,-3.59186e-37,-0.0465865,0.0206145,9.99193,-1.20899,0.27949,7.18555,-4.11572,-0.588623
1115,-3.59373e-37,-0.0561498,0.00756055,10.0007,-1.18973,0.178595,6.03955,-4.12207,-0.592041
1116,-3.5956e-37,-0.047173,0.0110583,9.99452,-1.1813,0.129032,1.55835,-4.10522,-0.590576
1117,-3.59747e-37,-0.0617649,-0.00716713,10.0003,-1.03202,0.140584,-5.51562,-4.11157,-0.589844
1118,-3.59933e-37,-0.0540684,0.00633029,9.97167,-1.05421,0.258793,5.66992,-4.12036,-0.591064
1119,-3.6012e-37,-0.0618506,-0.000364795,9.97794,-1.12049,0.233026,7.8562,-4.10718,-0.586426
1120,-3.60307e-37,-0.0619007,0.0276887,9.99851,-1.20973,0.107849,-4.40698,-4.1167,-0.592529
1121,-3.60494e-37,-0.0612069,0.00502845,9.99083,-1.07626,0.198036,-6.86938,-4.1189,-0.587402
1122,-3.60681e-37,-0.0744396,-0.0111155,10.0063,-1.13791,0.17068,-6.08545,-4.14795,-0.589355
1123,-3.60868e-37,-0.0503847,-0.0218519,9.99969,-1.03922,0.169425,-0.896484,-4.11353,-0.586914
1124,-3.61054e-37,-0.044648,-0.0222596,9.98514,-1.10103,0.211689,-4.40698,-4.1167,-0.587646
1125,-3.61241e-37,-0.0577665,-0.00305425,10.0205,-1.2272,0.17191,-6.13818,-4.11646,-0.594727
1126,-3.61428e-37,-0.0561498,-0.00231037,10.0173,-1.18097,0.210203,-4.58057,-4.1355,-0.589111
1127,-3.61615e-37,-0.0594688,0.00891962,9.98795,-1.13069,0.273368,-5.32446,-4.12817,-0.59082
1128,-3.61802e-37,-0.0637747,0.00115876,9.99971,-1.15172,0.191735,-1.78589,-4.11523,-0.587158
1129,-3.61989e-37,-0.0405496,-0.00737456,9.96177,-1.1789,0.233154,-7.13354,-4.11768,-0.591553
1130,-3.62175e-37,-0.0580096,-0.0161797,9.98603,-1.16289,0.230413,-3.48486,-4.09961,-0.591797
1131,-3.62362e-37,-0.0410788,0.00249634,9.99977,-1.15684,0.283614,3.93872,-4.12012,-0.589111
1132,-3.62549e-37,-0.0630809,0.00474949,9.98497,-1.17492,0.339862,2.50293,-4.10571,-0.591797
1133,-3.62736e-37,-0.0526235,-0.00341906,9.99151,-1.17559,0.202647,2.31812,-4.12427,-0.586914
1134,-3.62923e-37,-0.0626948,-0.00955619,10.0127,-1.15277,0.13062,-6.6582,-4.11987,-0.588623
1135,-3.6311e-37,-0.0534174,0.00794681,10.041,-1.18591,0.106799,4.021,-4.10303,-0.591064
1136,-3.63296e-37,-0.0693754,0.0166804,10.0127,-1.15305,0.279797,3.66724,-4.11304,-0.591797
1137,-3.63483e-37,-0.0611209,-0.00467797,9.99047,-1.11683,0.105748,2.65894,-4.10449,-0.591309
1138,-3.6367e-37,-0.0430744,0.0113802,9.9795,-1.16353,0.230438,5.96899,-4.10815,-0.586914
1139,-3.63857e-37,-0.0589895,-0.000586533,9.96213,-1.12805,0.231565,-0.111328,-4.08105,-0.59082
1140,-3.64044e-37,-0.0723439,-0.0261293,9.98696,-1.15489,0.229644,-5.89478,-4.10205,-0.586914
1141,-3.64231e-37,-0.0690679,-0.00804695,9.97224,-1.15279,0.200367,-3.54028,-4.12866,-0.588135
1142,-3.64417e-37,-0.0591254,-0.0142914,9.99777,-1.19764,0.207565,3.86816,-4.1062,-0.592041
1143,-3.64604e-37,-0.0539394,-0.0158722,9.99796,-1.20469,0.213738,-7.24634,-4.11133,-0.5896
1144,-3.64791e-37,-0.0687102,0.00655916,10.0246,-1.23986,0.143734,-2.05273,-4.11206,-0.593018
1145,-3.64978e-37,-0.0527951,0.00742465,10.0331,-1.07477,0.160153,1.23901,-4.10181,-0.588623
1146,-3.65165e-37,-0.0566791,-0.0110082,9.99424,-1.20833,0.222549,-6.66626,-4.11401,-0.590576
1147,-3.65352e-37,-0.0624014,-0.0190194,9.99658,-1.15041,0.150573,-1.64575,-4.10229,-0.589111
1148,-3.65538e-37,-0.051851,-0.0106863,9.99512,-1.1041,0.101804,7.02197,-4.11108,-0.5896
1149,-3.65725e-37,-0.0449127,0.0108366,9.98304,-1.20382,0.249162,-1.31616,-4.11353,-0.593506
1150,-3.65912e-37,-0.0453419,-0.00915564,10,-1.16942,0.162868,-7.87524,-4.1123,-0.586182
1151,-3.66099e-37,-0.0397197,-0.0103788,9.98907,-1.25448,0.1965,-7.16406,-4.09424,-0.595947
1152,-3.66286e-37,-0.0647976,0.00260363,10.0043,-1.21575,0.153621,4.14478,-4.11719,-0.587158
1153,-3.66473e-37,-0.0414436,0.0201496,9.99573,-1.21885,0.193375,-5.00317,-4.13354,-0.590332
1154,-3.66659e-37,-0.0668431,-0.0167734,10.0086,-1.16786,0.195475,0.613281,-4.10474,-0.589355
1155,-3.66846e-37,-0.0469942,0.00429886,9.99128,-1.07032,0.193887,-3.74683,-4.10034,-0.585693
1156,-3.67033e-37,-0.0642397,0.00339045,10.004,-1.02816,0.162894,6.56763,-4.09326,-0.592773
1157,-3.6722e-37,-0.0813207,-0.00106577,10.016,-1.15346,0.140123,2.80981,-4.09937,-0.586426
1158,-3.67407e-37,-0.0533316,0.000858341,9.99324,-1.1843,0.202698,-4.94995,-4.10254,-0.592041
1159,-3.67594e-37,-0.0625945,0.00800403,10.0321,-1.14483,0.245115,-5.23584,-4.09326,-0.590088
1160,-3.6778e-37,-0.0468227,-0.00337611,9.99887,-1.05231,0.171756,-0.521484,-4.08789,-0.591064
1161,-3.67967e-37,-0.0454849,-0.0109367,10.0108,-1.15871,0.337275,-7.15161,-4.13525,-0.592041
1162,-3.68154e-37,-0.0550984,-0.00823292,10.0058,-1.1436,0.133104,-0.231201,-4.10107,-0.588623
1163,-3.68341e-37,-0.0595617,0.00148779,10.0135,-1.18714,0.162509,-5.47339,-4.104,-0.591309
1164,-3.68528e-37,-0.0695614,0.000815424,9.97795,-1.16593,0.152443,-4.67847,-4.10962,-0.588135
1165,-3.68715e-37,-0.07067,-0.01123,10.0114,-1.11276,0.174702,-5.71094,-4.12231,-0.594727
1166,-3.68901e-37,-0.0437539,-0.00272523,10.0123,-1.11068,0.17191,-3.09473,-4.11694,-0.591797
1167,-3.69088e-37,-0.0491043,0.00695972,9.99199,-1.09921,0.223062,2.65894,-4.10449,-0.587891
1168,-3.69275e-37,-0.0627877,0.00142342,10.0095,-1.18963,0.17547,-0.163086,-4.11304,-0.591553
1169,-3.69462e-37,-0.0713281,-0.0350418,10.0135,-1.21693,0.161459,-7.25464,-4.10547,-0.587646
1170,-3.69649e-37,-0.0604987,-0.000257502,9.9819,-1.10039,0.0673014,-5.62109,-4.11108,-0.592529
1171,-3.69836e-37,-0.0628376,-0.00908413,9.99907,-1.24705,0.227365,1.15942,-4.12085,-0.5896
1172,-3.70022e-37,-0.0451558,0.00113014,9.99827,-1.21691,0.123345,-1.94434,-4.1145,-0.587402
1173,-3.70209e-37,-0.046937,-0.00140911,9.99247,-1.2623,0.193477,3.45361,-4.11011,-0.592285
1174,-3.70396e-37,-0.0614429,-0.0107936,10.0372,-1.15454,0.252825,2.24731,-4.11035,-0.588867
1175,-3.70583e-37,-0.0755411,0.006459,9.99577,-1.14913,0.192094,6.08716,-4.11841,-0.591064
1176,-3.7077e-37,-0.0512073,-0.02251,9.99666,-1.06571,0.222524,3.04639,-4.11987,-0.590088
1177,-3.70957e-37,-0.0473947,0.00732451,10.0087,-1.05869,0.114022,-2.08984,-4.09229,-0.591309
1178,-3.71143e-37,-0.0455924,9.30181e-05,10.0095,-1.09534,0.200444,-1.38672,-4.09961,-0.5896
1179,-3.7133e-37,-0.0642683,0.0151998,9.99729,-1.02777,0.199881,6.0835,-4.08423,-0.5896
1180,-3.71517e-37,-0.0578379,-0.0159294,9.98781,-1.20543,0.229875,3.03638,-4.11206,-0.592285
1181,-3.71704e-37,-0.0683812,0.00178821,10.0008,-1.13438,0.238097,-3.58032,-4.10693,-0.589111
1182,-3.71891e-37,-0.0606273,0.00468509,10.0262,-1.23689,0.14604,-6.61841,-4.11035,-0.591797
1183,-3.72078e-37,-0.0671296,0.0116878,9.99041,-1.17651,0.115738,-4.63574,-4.10205,-0.588867
1184,-3.72264e-37,-0.0509425,-0.0103859,10.0111,-1.22367,0.150292,5.60181,-4.1084,-0.58667
1185,-3.72451e-37,-0.0662854,-0.00687388,10.0192,-1.16289,0.132182,7.19556,-4.15479,-0.592041
1186,-3.72638e-37,-0.0667789,0.00507137,10.0163,-1.1446,0.197703,-6.39453,-4.12109,-0.586426
1187,-3.72825e-37,-0.0532458,0.00738889,10.0362,-1.14844,0.133668,-3.19531,-4.12036,-0.593262
1188,-3.73012e-37,-0.0637891,0.00505706,10.019,-1.23607,0.181105,-1.67139,-4.09131,-0.587158
1189,-3.73199e-37,-0.0626589,-0.00312579,9.98593,-1.01732,0.215531,-7.65356,-4.08984,-0.591309
1190,-3.73385e-37,-0.0746113,0.00185974,9.99811,-1.06286,0.169349,-4.66138,-4.09106,-0.590088
1191,-3.73572e-37,-0.0513218,-0.00727439,10.0122,-1.02764,0.298624,-0.0275879,-4.09619,-0.589355
1192,-3.73759e-37,-0.0633384,-0.0122957,9.98126,-1.25861,0.179159,-1.48511,-4.10498,-0.591064
1193,-3.73946e-37,-0.0494834,0.00884091,10.0275,-1.17595,0.094555,-7.02271,-4.12207,-0.588867
1194,-3.74133e-37,-0.0525162,0.00312579,10.0098,-1.22549,0.195782,7.35132,-4.12231,-0.587891
1195,-3.7432e-37,-0.065048,-0.006552,10.0003,-1.17054,0.13646,-3.32178,-4.10425,-0.588867
1196,-3.74506e-37,-0.0833092,0.00165946,9.98493,-1.14017,0.277517,1.92773,-4.10693,-0.586914
1197,-3.74693e-37,-0.06356,0.00311862,9.98244,-1.16309,0.146168,4.08667,-4.11304,-0.59082
1198,-3.7488e-37,-0.0489541,-5.00699e-05,10.0293,-1.1186,0.214839,7.34912,-4.12036,-0.587646
1199,-3.75067e-37,-0.0426668,-0.00535747,10.0026,-1.12608,0.201648,-1.88892,-4.14795,-0.591309
1200,-3.75254e-37,-0.0795968,0.0130039,10.0355,-1.01742,0.26325,-2.01733,-4.09863,-0.58667
1201,-3.75441e-37,-0.0677874,0.00873359,10.0054,-1.12439,0.260612,-7.65332,-4.12109,-0.587402
1202,-3.75627e-37,-0.0680378,0.0146848,9.9957,-1.16271,0.17652,3.77539,-4.08423,-0.592285
1203,-3.75814e-37,-0.0659708,-0.0149923,10.005,-1.1499,0.200009,0.79541,-4.12305,-0.584473
1204,-3.76001e-37,-0.0432175,0.0127821,10.0024,-1.06563,0.168221,2.39502,-4.10327,-0.593262
1205,-3.76218e-37,-0.0665573,0.0217804,9.97393,-1.13325,0.210869,-1.31104,-4.11743,-0.585938
1206,-3.76591e-37,-0.0611923,0.00807553,9.9791,-1.14649,0.145732,6.09131,-4.09009,-0.59082
1207,-3.76965e-37,-0.0602627,0.0175388,9.98891,-1.20008,0.0752418,-4.19849,-4.11572,-0.585693
1208,-3.77339e-37,-0.0514361,-0.000908411,10.0082,-1.09373,0.106875,7.55737,-4.11938,-0.587646
1209,-3.77712e-37,-0.0638103,-0.00351207,9.99264,-1.09826,0.146398,5.28027,-4.10303,-0.591064
1210,-3.78086e-37,-0.0594759,-0.0192912,9.98051,-1.1697,0.164866,-3.47485,-4.10742,-0.58667
1211,-3.7846e-37,-0.0664998,-0.00513576,10.0023,-1.06968,0.180081,5.65698,-4.1106,-0.591797
1212,-3.78833e-37,-0.0673369,-0.00824007,10.0188,-1.17938,0.31868,-3.78125,-4.11377,-0.586182
1213,-3.79207e-37,-0.0582885,-0.00276815,10.0037,-1.08966,0.347444,0.0563965,-4.11963,-0.592773
1214,-3.79581e-37,-0.0658062,0.0100211,10.0327,-1.07103,0.237277,3.40845,-4.11572,-0.593018
1215,-3.79954e-37,-0.0497838,-0.0110154,10.0029,-1.24203,0.13044,1.30469,-4.11182,-0.588623
1216,-3.80328e-37,-0.0419443,-0.0109295,10.0316,-1.24457,0.120886,-6.52344,-4.10303,-0.593506
1217,-3.80702e-37,-0.0598264,-0.00273239,10.007,-1.10459,0.208923,6.8584,-4.1377,-0.585938
1218,-3.81075e-37,-0.0551556,0.0126963,10.0069,-1.03927,0.261534,2.55078,-4.10205,-0.591064
1219,-3.81449e-37,-0.0514647,-0.0196775,10.0212,-1.15548,0.284792,5.91846,-4.14111,-0.591309
1220,-3.81823e-37,-0.0648119,-0.00913418,10.014,-1.03763,0.17693,-4.74463,-4.09961,-0.589844
1221,-3.82196e-37,-0.056393,-0.0036551,9.97267,-1.11296,0.0941451,6.40771,-4.09155,-0.591309
1222,-3.8257e-37,-0.0667646,0.000736743,9.99605,-1.15013,0.197729,2.1814,-4.10034,-0.589355
1223,-3.82944e-37,-0.0538896,-0.00263937,9.98864,-1.15684,0.233871,0.209473,-4.11646,-0.594482
1224,-3.83317e-37,-0.0646475,-0.00633025,10.0234,-1.14547,0.151956,5.50659,-4.11572,-0.590088
1225,-3.83691e-37,-0.0636103,0.0309575,10.0073,-1.1739,0.0936841,1.25708,-4.14673,-0.587402
1226,-3.84065e-37,-0.0453276,0.0045349,9.9765,-1.13118,0.198574,-3.05029,-4.11133,-0.590332
1227,-3.84438e-37,-0.0596976,0.0119667,10.0023,-1.03817,0.223395,-7.28906,-4.1189,-0.585205
1228,-3.84812e-37,-0.0443548,0.00571512,10.028,-1.15528,0.222575,-1.1499,-4.12012,-0.594238
1229,-3.85186e-37,-0.0668433,-0.0129466,9.99752,-1.09854,0.257794,-1.07007,-4.10107,-0.586914
1230,-3.85559e-37,-0.061729,-0.00316871,9.98885,-1.17267,0.186945,1.73242,-4.11768,-0.591064
1231,-3.85933e-37,-0.0495762,0.0178535,9.9809,-1.11816,0.264275,3.9917,-4.12036,-0.590332
1232,-3.86307e-37,-0.0594616,0.00897682,9.99593,-1.19693,0.11789,2.18652,-4.10425,-0.590332
1233,-3.8668e-37,-0.0666287,-0.0178678,10.0073,-1.17357,0.232744,-0.208008,-4.11865,-0.591309
1234,-3.87054e-37,-0.0606847,-0.00369802,10.022,-1.11299,0.304643,6.48853,-4.13599,-0.586914
1235,-3.87428e-37,-0.052323,0.0129681,10.0168,-1.16896,0.230464,-7.80664,-4.12427,-0.591553
1236,-3.87801e-37,-0.0785454,-0.00399844,9.98656,-1.07521,0.155773,-2.51196,-4.12158,-0.586426
1237,-3.88175e-37,-0.0625517,-0.0134545,10.0004,-1.18707,0.245448,2.88818,-4.11914,-0.591797
1238,-3.88549e-37,-0.0597191,-0.0159151,10.0134,-1.30709,0.289326,2.70386,-4.13013,-0.59082
1239,-3.88922e-37,-0.051758,-0.00907696,10.0268,-1.18079,0.158591,4.69702,-4.09839,-0.585449
1240,-3.89296e-37,-0.0306428,-0.00657346,9.99277,-1.0634,0.109872,5.38794,-4.10547,-0.590576
1241,-3.8967e-37,-0.0715572,-0.0105933,10.0059,-1.1688,0.276262,7.07153,-4.10938,-0.585449
1242,-3.90043e-37,-0.0544045,0.00146633,10.015,-1.16332,0.217657,-7.13623,-4.11572,-0.593018
1243,-3.90417e-37,-0.0691036,-0.0125675,10.0175,-1.21086,0.223907,-7.08838,-4.14331,-0.588623
1244,-3.90791e-37,-0.0712995,-0.00788243,10.0132,-1.15367,0.159154,-7.93018,-4.11011,-0.585693
1245,-3.91164e-37,-0.0582241,-0.00358357,9.99621,-1.19629,0.237534,-3.8894,-4.14258,-0.592529
1246,-3.91538e-37,-0.0565506,-0.000278947,10.0348,-1.20016,0.102931,-6.99365,-4.10474,-0.584961
1247,-3.91912e-37,-0.0523087,-0.00386969,10.0177,-1.19075,0.252492,-6.68701,-4.09839,-0.591797
1248,-3.92285e-37,-0.0504562,0.00835452,9.99638,-1.20886,0.285535,-0.949219,-4.11328,-0.585449
1249,-3.92659e-37,-0.0599337,-0.00888383,10.0059,-1.21773,0.174676,1.75366,-4.12573,-0.591553
1250,-3.93033e-37,-0.0548839,0.00177392,10.0012,-1.31714,0.21904,5.90283,-4.09814,-0.593018
1251,-3.93406e-37,-0.0571441,-0.0121956,10.0136,-1.20559,0.265607,-4.1958,-4.11768,-0.58667
1252,-3.9378e-37,-0.0808702,-0.018533,10.0043,-1.23973,0.297496,5.35229,-4.08667,-0.591309
1253,-3.94154e-37,-0.049841,-0.0101785,9.9888,-1.11845,0.193887,4.15381,-4.09277,-0.586914
1254,-3.94527e-37,-0.0673154,0.0158793,10.0316,-1.18894,0.164046,-5.66602,-4.1167,-0.593994
1255,-3.94901e-37,-0.0687388,0.0070527,10.0207,-1.22052,0.194783,5.77832,-4.09155,-0.589355
1256,-3.95275e-37,-0.0697045,-0.00527165,9.99968,-1.2352,0.155286,-7.94873,-4.09644,-0.590332
1257,-3.95648e-37,-0.0481672,0.0127821,9.98965,-1.19347,0.216735,-1.46411,-4.12061,-0.593018
1258,-3.96022e-37,-0.0500341,0.00384108,9.98807,-1.11401,0.128289,3.89136,-4.09253,-0.588379
1259,-3.96395e-37,-0.0696472,0.0121241,10.0083,-1.07436,0.240249,-7.35498,-4.10889,-0.593018
1260,-3.96769e-37,-0.0573157,-0.00263225,9.97588,-1.12457,0.120169,0.0332031,-4.10205,-0.590576
1261,-3.97143e-37,-0.0531456,0.0041844,9.99846,-1.07803,0.261995,7.64453,-4.13745,-0.588867
1262,-3.97516e-37,-0.045206,0.010951,10.0136,-1.11668,0.258102,2.52124,-4.11938,-0.589111
1263,-3.9789e-37,-0.0566079,0.00641615,10.0164,-1.17326,0.20736,-5.82812,-4.08179,-0.588379
1264,-3.98264e-37,-0.0478311,0.0143271,9.96441,-1.19675,0.239327,-0.843994,-4.11377,-0.588623
1265,-3.98637e-37,-0.0447055,0.00617294,10.0213,-1.11775,0.175547,-3.56226,-4.08936,-0.585693
1266,-3.99011e-37,-0.0748186,-0.0108509,10.0001,-1.1458,0.113868,3.07373,-4.10059,-0.589844
1267,-3.99385e-37,-0.0663857,-0.0113587,10.0137,-1.08054,0.0923265,-6.82178,-4.11523,-0.588379
1268,-3.99758e-37,-0.0579522,0.0107578,10.0098,-1.12713,0.256565,5.33252,-4.10327,-0.591064
1269,-4.00132e-37,-0.0594546,-0.00447766,10.003,-1.13023,0.195296,5.82104,-4.11523,-0.593994
1270,-4.00506e-37,-0.0600412,-0.00588675,10.0106,-1.18438,0.195629,-2.2478,-4.09155,-0.585693
1271,-4.00879e-37,-0.0463576,-0.001638,9.9767,-1.17249,0.185665,-2.68555,-4.10913,-0.592285
1272,-4.01253e-37,-0.058539,0.0126534,9.98727,-1.07352,0.263327,6.97144,-4.11279,-0.589355
1273,-4.01627e-37,-0.0459925,0.0100998,9.9856,-1.10738,0.253235,4.46143,-4.0874,-0.588379
1274,-4.02e-37,-0.0610638,-0.00145203,9.99422,-1.18205,0.206361,-4.90234,-4.09888,-0.589111
1275,-4.02374e-37,-0.0623299,0.00622298,10.0112,-1.09393,0.176341,0.76123,-4.16016,-0.586426
1276,-4.02748e-37,-0.0465579,0.0271593,10.0054,-1.04375,0.213251,2.05396,-4.12305,-0.593994
1277,-4.03121e-37,-0.0587962,-0.00967781,10.0105,-1.1864,0.125369,3.55884,-4.1106,-0.588379
1278,-4.03495e-37,-0.075305,-0.0133258,10.0076,-1.0886,0.26763,-2.52222,-4.11377,-0.59375
1279,-4.03869e-37,-0.0450345,-0.00538607,10.0126,-1.09373,0.112869,2.05176,-4.08984,-0.59082
1280,-4.04242e-37,-0.0518367,0.00401274,9.98662,-1.06345,0.261637,-1.32153,-4.10962,-0.59082
1281,-4.04616e-37,-0.0689462,-0.00218877,9.99631,-1.17136,0.182873,2.51587,-4.11548,-0.593994
1282,-4.0499e-37,-0.0793752,0.0208434,10.0014,-1.10472,0.155466,6.18481,-4.11304,-0.587646
1283,-4.05363e-37,-0.0693755,0.0214299,10.0191,-1.13387,0.133028,7.70264,-4.1416,-0.5896
1284,-4.05737e-37,-0.0419585,0.0218305,10.0148,-1.07823,0.212483,5.09253,-4.11963,-0.585693
1285,-4.06111e-37,-0.0476096,0.00820437,9.97448,-1.15118,0.284023,0.634033,-4.08911,-0.587891
1286,-4.06484e-37,-0.0467724,0.000472088,9.99382,-1.11921,0.294653,6.63477,-4.0957,-0.590088
1287,-4.06858e-37,-0.0564432,-0.014885,9.9605,-1.11955,0.331102,-4.04248,-4.1145,-0.590576
1288,-4.07232e-37,-0.0676874,0.00566505,10.0288,-1.08812,0.201238,-2.22632,-4.09961,-0.594971
1289,-4.07605e-37,-0.0419157,-0.00718861,9.98214,-1.01642,0.291426,5.81567,-4.11133,-0.587646
