timestamp_ms,acc_x,acc_y,acc_z,gyr_x,gyr_y,gyr_z,mag_x,mag_y,mag_z
0,-8.4856e-39,0,0,0,0,0,0,0,-0.269287
1,-8.49727e-39,-0.388621,-0.169193,9.8808,-0.195078,-0.272151,-7.52612,3.97559,-0.270752
2,-8.50895e-39,-0.408399,-0.173056,9.92659,-0.136088,-0.347585,6.32495,3.97388,-0.264893
3,-8.52063e-39,-0.380474,-0.180523,9.88449,-0.204939,-0.286879,7.74512,3.97119,-0.268555
4,-8.5323e-39,-0.376433,-0.188091,9.90097,-0.213085,-0.26229,6.68945,3.97607,-0.266357
5,-8.54398e-39,-0.374258,-0.191997,9.91197,-0.291772,-0.260625,5.95532,3.97583,-0.268555
6,-8.55566e-39,-0.370253,-0.188692,9.90465,-0.106581,-0.286982,6.06152,3.97485,-0.264648
7,-8.56734e-39,-0.364402,-0.196102,9.89001,-0.142697,-0.355782,7.89819,3.97437,-0.264404
8,-8.57901e-39,-0.393185,-0.177884,9.89004,-0.113164,-0.337801,-7.31494,3.97461,-0.270996
9,-8.59069e-39,-0.390874,-0.172505,9.90837,-0.177071,-0.318078,1.39526,3.97339,-0.267334
10,-8.60237e-39,-0.379437,-0.16355,9.90838,-0.0869603,-0.36572,-4.48486,3.97656,-0.271973
11,-8.61404e-39,-0.399143,-0.196539,9.93037,-0.167261,-0.339363,-6.89282,3.97266,-0.268311
12,-8.62572e-39,-0.396818,-0.174737,9.91209,-0.201686,-0.340977,2.59814,3.97583,-0.272705
13,-8.6374e-39,-0.376218,-0.176826,9.91209,-0.173869,-0.373788,6.11401,3.97485,-0.267578
14,-8.64907e-39,-0.368393,-0.175209,9.90111,-0.18204,-0.350838,5.53857,3.97363,-0.265381
15,-8.66075e-39,-0.378872,-0.166217,9.90113,-0.0968218,-0.368973,3.75439,3.97412,-0.267578
16,-8.67243e-39,-0.369273,-0.184622,9.89565,-0.163905,-0.288544,-5.31982,3.97314,-0.267334
17,-8.68411e-39,-0.40553,-0.193849,9.91582,-0.173767,-0.308216,-3.1189,3.97485,-0.26416
18,-8.69578e-39,-0.377642,-0.181289,9.87737,-0.160806,-0.388542,4.54102,3.97437,-0.267578
19,-8.70746e-39,-0.382634,-0.199772,9.91949,-0.22958,-0.373712,4.17114,3.97632,-0.267822
20,-8.71914e-39,-0.387577,-0.179844,9.88657,-0.214955,-0.437645,6.68945,3.97607,-0.268066
21,-8.73081e-39,-0.37051,-0.183821,9.89571,-0.123128,-0.38698,-7.78418,3.97241,-0.265869
22,-8.74249e-39,-0.373636,-0.174751,9.87378,-0.114957,-0.432957,0.656738,3.97632,-0.269531
23,-8.75417e-39,-0.371168,-0.173035,9.89393,-0.165647,-0.329527,-0.753906,3.97144,-0.271729
24,-8.76584e-39,-0.392827,-0.200594,9.89945,-0.213162,-0.3409,5.59131,3.97363,-0.269775
25,-8.77752e-39,-0.407004,-0.198942,9.90864,-0.167312,-0.37051,-0.389404,3.97363,-0.265625
26,-8.7892e-39,-0.399121,-0.195502,9.93613,-0.193516,-0.375402,3.33228,3.97607,-0.266357
27,-8.80088e-39,-0.395023,-0.19018,9.86289,-0.154198,-0.357421,-7.94287,3.97339,-0.266113
28,-8.81255e-39,-0.388893,-0.162906,9.87574,-0.198562,-0.427835,2.3606,3.97681,-0.263428
29,-8.82423e-39,-0.375639,-0.186982,9.85924,-0.200047,-0.355705,-3.11865,3.97485,-0.266113
30,-8.83591e-39,-0.378793,-0.200058,9.9215,-0.213341,-0.429448,5.90308,3.97583,-0.264648
31,-8.84758e-39,-0.359838,-0.189407,9.91784,-0.090367,-0.408445,5.95679,3.97485,-0.267822
32,-8.85926e-39,-0.392255,-0.183764,9.89229,-0.0376273,-0.295486,5.64502,3.97266,-0.271484
33,-8.87094e-39,-0.399193,-0.181861,9.87766,-0.218105,-0.339184,3.49512,3.97192,-0.269775
34,-8.88262e-39,-0.385896,-0.180366,9.88681,-0.0764329,-0.131452,5.53857,3.97363,-0.266602
35,-8.89429e-39,-0.40219,-0.174823,9.88685,-0.139341,-0.316489,1.60596,3.97241,-0.268799
36,-8.90597e-39,-0.392648,-0.178671,9.87769,-0.160652,-0.345971,-1.59839,3.97534,-0.268799
37,-8.91765e-39,-0.390402,-0.187998,9.88135,-0.0313262,-0.393921,0.657959,3.97534,-0.269043
38,-8.92932e-39,-0.389758,-0.173335,9.88688,-0.148972,-0.259062,-6.84058,3.97266,-0.266846
39,-8.941e-39,-0.391425,-0.200945,9.89237,-0.18829,-0.278632,-4.85059,3.97534,-0.266113
40,-8.95268e-39,-0.372613,-0.171947,9.85758,-0.093492,-0.3232,-2.90625,3.9729,-0.266846
41,-8.96435e-39,-0.359345,-0.181303,9.89418,-0.168977,-0.368871,2.75659,3.97485,-0.269043
42,-8.97603e-39,-0.400795,-0.16287,9.9053,-0.130863,-0.267361,7.68726,3.97534,-0.268799
43,-8.98771e-39,-0.378729,-0.196124,9.90522,-0.117902,-0.295281,-5.5835,3.97412,-0.267822
44,-8.99939e-39,-0.389222,-0.179644,9.89246,-0.0358343,-0.259498,1.23755,3.97339,-0.267578
45,-9.01106e-39,-0.399887,-0.186875,9.90714,-0.0902133,-0.339619,-0.494385,3.97363,-0.264404
46,-9.02274e-39,-0.386597,-0.181532,9.89431,-0.184013,-0.416283,-1.17603,3.97339,-0.268066
47,-9.03442e-39,-0.388063,-0.200022,9.87601,-0.118363,-0.410033,1.81274,3.97461,-0.265869
48,-9.04609e-39,-0.381969,-0.19651,9.87783,-0.070516,-0.34633,-7.73584,3.97559,-0.269287
49,-9.05777e-39,-0.387005,-0.203842,9.90167,-0.0882666,-0.274098,1.86523,3.97461,-0.268066
50,-9.06945e-39,-0.382842,-0.192969,9.92183,-0.127789,-0.324737,1.70654,3.97559,-0.267822
51,-9.08112e-39,-0.404372,-0.181861,9.88713,-0.141134,-0.360725,-0.38916,3.97363,-0.26709
52,-9.0928e-39,-0.398184,-0.172934,9.92926,-0.140827,-0.308293,-6.52856,3.97485,-0.265869
53,-9.10448e-39,-0.385131,-0.18415,9.90541,-0.162343,-0.32945,6.6416,3.9729,-0.265137
54,-9.11616e-39,-0.362484,-0.155202,9.88343,-0.216543,-0.343922,-5.63281,3.97192,-0.266602
55,-9.12783e-39,-0.3786,-0.164451,9.87798,-0.0720272,-0.311905,2.54688,3.97485,-0.267334
56,-9.13951e-39,-0.383578,-0.164479,9.9128,-0.196333,-0.245692,-0.913574,3.97339,-0.26709
57,-9.15119e-39,-0.37247,-0.183113,9.90544,-0.110218,-0.421559,-7.78857,3.97559,-0.270752
58,-9.16286e-39,-0.393979,-0.19028,9.89453,-0.215032,-0.403014,3.43726,3.97607,-0.26416
59,-9.17454e-39,-0.382334,-0.18518,9.91466,-0.242721,-0.343794,2.49634,3.97363,-0.266357
60,-9.18622e-39,-0.387813,-0.205437,9.83775,-0.0486414,-0.23834,3.38599,3.9751,-0.268311
61,-9.19789e-39,-0.398056,-0.185266,9.90742,-0.126995,-0.48708,-7.78857,3.97559,-0.268066
62,-9.20957e-39,-0.41563,-0.174172,9.88737,-0.172461,-0.385136,-4.53345,3.97339,-0.264893
63,-9.22125e-39,-0.374809,-0.174808,9.89275,-0.221768,-0.417691,-1.22949,3.97437,-0.266113
64,-9.23293e-39,-0.372506,-0.187927,9.90923,-0.160627,-0.324584,5.53857,3.97363,-0.265869
65,-9.2446e-39,-0.372091,-0.1844,9.8891,-0.162061,-0.286828,-1.01855,3.97339,-0.268555
66,-9.25628e-39,-0.388278,-0.193535,9.8928,-0.122487,-0.269078,-6.7395,3.97583,-0.269043
67,-9.26796e-39,-0.395259,-0.193556,9.89102,-0.198357,-0.350633,-2.43848,3.97607,-0.265869
68,-9.27963e-39,-0.389036,-0.179222,9.91483,-0.172204,-0.360623,-1.49341,3.97534,-0.27002
69,-9.29131e-39,-0.403599,-0.204807,9.89107,-0.0889582,-0.393844,-4.00879,3.97363,-0.263916
70,-9.30299e-39,-0.402934,-0.197569,9.90208,0.00349634,-0.296049,2.49634,3.97388,-0.268066
71,-9.31466e-39,-0.396682,-0.171962,9.91677,-0.129544,-0.339504,3.78101,3.97412,-0.263916
72,-9.32634e-39,-0.385474,-0.183163,9.88926,-0.180196,-0.32612,3.4895,3.97607,-0.27124
73,-9.33802e-39,-0.385002,-0.179672,9.88378,-0.199765,-0.314517,-5.69067,3.97607,-0.268555
74,-9.3497e-39,-0.388242,-0.183535,9.89846,-0.0624987,-0.361238,0.0300293,3.97412,-0.265869
75,-9.36137e-39,-0.380209,-0.167169,9.89848,-0.270076,-0.294384,2.93774,3.97681,-0.268066
76,-9.37305e-39,-0.389243,-0.191195,9.9113,-0.221128,-0.317642,-4.58838,3.97534,-0.266846
77,-9.38473e-39,-0.392384,-0.178542,9.89119,-0.132195,-0.254298,-5.63696,3.9751,-0.268555
78,-9.3964e-39,-0.39596,-0.18955,9.86557,-0.129249,-0.305168,-1.59839,3.97534,-0.265137
79,-9.40808e-39,-0.376833,-0.17169,9.904,-0.093287,-0.306987,-3.0647,3.97388,-0.265625
80,-9.41976e-39,-0.389236,-0.175259,9.91871,-0.0753827,-0.326812,-3.11743,3.97388,-0.271484
81,-9.43144e-39,-0.376225,-0.180903,9.87655,-0.115059,-0.367462,2.81055,3.97388,-0.264404
82,-9.44311e-39,-0.384687,-0.173592,9.8986,-0.0854235,-0.334855,-2.7478,3.97192,-0.268066
83,-9.45479e-39,-0.377427,-0.212232,9.9095,-0.147436,-0.304912,7.42798,3.97314,-0.266846
84,-9.46647e-39,-0.382184,-0.188485,9.90408,-0.0824266,-0.187445,5.95581,3.97583,-0.267822
85,-9.47814e-39,-0.389301,-0.188413,9.89679,-0.234421,-0.322304,6.79736,3.97388,-0.26709
86,-9.48982e-39,-0.388864,-0.186839,9.89498,-0.197742,-0.262008,-3.74902,3.97559,-0.266357
87,-9.5015e-39,-0.399622,-0.197905,9.90599,-0.16096,-0.168875,6.42773,3.97583,-0.270996
88,-9.51317e-39,-0.386618,-0.190874,9.873,-0.150663,-0.273688,-1.17163,3.97021,-0.265869
89,-9.52485e-39,-0.378722,-0.185716,9.90229,-0.14969,-0.367154,-4.16333,3.97144,-0.265625
90,-9.53653e-39,-0.365496,-0.178657,9.85832,-0.221819,-0.397866,-1.33569,3.97534,-0.264648
91,-9.54821e-39,-0.361197,-0.182705,9.89127,-0.158603,-0.278683,-1.12476,3.97437,-0.265869
92,-9.55988e-39,-0.391861,-0.187934,9.92986,-0.093953,-0.203812,-3.2771,3.97583,-0.26709
93,-9.57156e-39,-0.411711,-0.176618,9.89886,-0.118543,-0.380602,2.81079,3.97388,-0.267334
94,-9.58324e-39,-0.412819,-0.160174,9.88427,-0.177199,-0.358907,-6.63477,3.97583,-0.271484
95,-9.59491e-39,-0.39066,-0.182734,9.89878,-0.0484365,-0.450145,-6.63525,3.97607,-0.267334
96,-9.60659e-39,-0.397498,-0.191775,9.90431,-0.134552,-0.3576,3.33228,3.97607,-0.266846
97,-9.61827e-39,-0.380381,-0.175638,9.87682,-0.0937993,-0.361135,-5.52979,3.97314,-0.268066
98,-9.62994e-39,-0.366876,-0.17234,9.90609,-0.195385,-0.350403,0.0839844,3.9729,-0.265869
99,-9.64162e-39,-0.369916,-0.157785,9.88235,-0.127508,-0.283831,-2.12109,3.97412,-0.265625
100,-9.6533e-39,-0.365889,-0.165345,9.90614,-0.162676,-0.381934,-1.5459,3.97534,-0.265381
101,-9.66498e-39,-0.38061,-0.194507,9.88967,-0.0903158,-0.357985,-1.07397,3.97559,-0.26709
102,-9.67665e-39,-0.398406,-0.194271,9.89894,-0.152866,-0.368819,-0.336914,3.97363,-0.267578
103,-9.68833e-39,-0.381325,-0.187383,9.89157,-0.154275,-0.347508,-5.42603,3.97412,-0.268311
104,-9.70001e-39,-0.419629,-0.206996,9.90089,-0.18514,-0.344076,-5.06299,3.97729,-0.26709
105,-9.71168e-39,-0.387384,-0.172977,9.90632,-0.173818,-0.325992,-1.69995,3.97314,-0.269287
106,-9.72336e-39,-0.403871,-0.189279,9.87891,-0.180094,-0.303042,-5.16382,3.97412,-0.269043
107,-9.73504e-39,-0.385131,-0.184279,9.86419,-0.219975,-0.381422,5.32471,3.97656,-0.269287
108,-9.74671e-39,-0.360618,-0.179529,9.88057,-0.2252,-0.397712,-0.233398,3.97461,-0.265625
109,-9.75839e-39,-0.361812,-0.176103,9.8861,-0.200636,-0.389695,-0.96582,3.97339,-0.266602
110,-9.77007e-39,-0.373994,-0.172434,9.89169,-0.151483,-0.401682,-1.43945,3.97437,-0.266357
111,-9.78175e-39,-0.392119,-0.186846,9.87895,-0.205324,-0.36011,0.975586,3.97314,-0.268066
112,-9.79342e-39,-0.380267,-0.170839,9.88811,-0.226302,-0.33862,1.7605,3.97437,-0.266846
113,-9.8051e-39,-0.396289,-0.168922,9.88089,-0.109322,-0.279144,-2.17358,3.97412,-0.27002
114,-9.81678e-39,-0.403306,-0.17993,9.90838,-0.116314,-0.326607,1.91772,3.97461,-0.265625
115,-9.82845e-39,-0.38669,-0.195008,9.90827,-0.194796,-0.320998,1.18115,3.97632,-0.264893
116,-9.84013e-39,-0.382777,-0.20445,9.91007,-0.1647,-0.262264,-2.17603,3.97607,-0.267578
117,-9.85181e-39,-0.378586,-0.189994,9.89179,-0.0539948,-0.332242,3.91016,3.97534,-0.261963
118,-9.86348e-39,-0.39586,-0.165867,9.90662,-0.185242,-0.337416,-5.47974,3.9751,-0.267578
119,-9.87516e-39,-0.383271,-0.199285,9.9083,-0.166441,-0.414643,4.54102,3.97437,-0.266846
120,-9.88684e-39,-0.404128,-0.177069,9.92133,-0.144259,-0.34113,-1.5459,3.97534,-0.265869
121,-9.89852e-39,-0.382048,-0.184908,9.89006,-0.117492,-0.267541,-6.7356,3.97266,-0.265625
122,-9.91019e-39,-0.400194,-0.190072,9.87735,-0.125587,-0.272459,-1.22974,3.97437,-0.266846
123,-9.92187e-39,-0.379294,-0.172319,9.87912,-0.192184,-0.2325,-0.34082,3.97656,-0.268555
124,-9.93355e-39,-0.386118,-0.159516,9.86639,-0.128686,-0.254401,2.23242,3.97461,-0.262695
125,-9.94522e-39,-0.372892,-0.159952,9.87731,-0.112395,-0.259472,-2.06836,3.97412,-0.27002
126,-9.9569e-39,-0.374845,-0.183821,9.88459,-0.217362,-0.430524,0.290039,3.97607,-0.26709
127,-9.96858e-39,-0.38885,-0.181925,9.89019,-0.12136,-0.347969,3.22705,3.97607,-0.268799
128,-9.98026e-39,-0.393964,-0.178163,9.86097,-0.237495,-0.317155,2.49365,3.97559,-0.26709
129,-9.99193e-39,-0.399229,-0.193013,9.88295,-0.242234,-0.272689,-1.59375,3.97192,-0.264893
130,-1.00036e-38,-0.402462,-0.196953,9.90677,-0.0948751,-0.292412,2.2876,3.97266,-0.271973
131,-1.00153e-38,-0.385474,-0.184501,9.87924,-0.14344,-0.40181,2.73071,3.97485,-0.268311
132,-1.0027e-38,-0.370117,-0.183213,9.89932,-0.270128,-0.451195,5.74609,3.97559,-0.267578
133,-1.00386e-38,-0.367942,-0.194543,9.89563,-0.2137,-0.391206,2.12622,3.97559,-0.267578
134,-1.00503e-38,-0.369308,-0.194729,9.88649,-0.205119,-0.338723,-0.598633,3.97339,-0.265381
135,-1.0062e-38,-0.372098,-0.180259,9.89757,-0.279016,-0.344409,-5.16211,3.9729,-0.266602
136,-1.00737e-38,-0.388056,-0.182076,9.91233,-0.180913,-0.255528,3.90918,3.97607,-0.266357
137,-1.00853e-38,-0.38262,-0.189622,9.87932,-0.231501,-0.351555,-3.95605,3.97339,-0.265625
138,-1.0097e-38,-0.381726,-0.182676,9.91414,-0.148178,-0.365643,2.44507,3.97266,-0.269043
139,-1.01087e-38,-0.40689,-0.187755,9.93081,-0.214058,-0.3993,5.90576,3.97363,-0.265137
140,-1.01204e-38,-0.389587,-0.164458,9.88684,-0.141647,-0.375556,2.07666,3.97363,-0.267578
141,-1.01321e-38,-0.387555,-0.179307,9.89411,-0.203787,-0.371586,-4.32471,3.97437,-0.266846
142,-1.01437e-38,-0.381297,-0.170531,9.89962,-0.215416,-0.384572,1.65576,3.97437,-0.269043
143,-1.01554e-38,-0.386382,-0.172434,9.88868,-0.188341,-0.312724,-3.22192,3.97363,-0.265869
144,-1.01671e-38,-0.391625,-0.183535,9.90335,-0.169797,-0.290132,7.16187,3.97607,-0.270752
145,-1.01788e-38,-0.403785,-0.166847,9.88336,-0.142364,-0.310086,0.554443,3.97412,-0.270996
146,-1.01904e-38,-0.387405,-0.189386,9.89051,-0.167158,-0.33109,6.37646,3.97485,-0.264404
147,-1.02021e-38,-0.385409,-0.200594,9.89049,-0.185857,-0.243924,3.70264,3.97388,-0.269531
148,-1.02138e-38,-0.38787,-0.16591,9.8888,-0.189622,-0.414413,-4.58716,3.97437,-0.265869
149,-1.02255e-38,-0.378192,-0.17189,9.90155,-0.14677,-0.38867,4.69995,3.97339,-0.268066
150,-1.02371e-38,-0.401847,-0.180502,9.88157,-0.229452,-0.307192,-7.52148,3.97217,-0.266602
151,-1.02488e-38,-0.388221,-0.177584,9.92178,-0.0776624,-0.363312,2.65454,3.9729,-0.269775
152,-1.02605e-38,-0.403013,-0.191768,9.8889,-0.274457,-0.383752,2.91455,3.97461,-0.268555
153,-1.02722e-38,-0.386189,-0.199872,9.89242,-0.252249,-0.406805,1.76489,3.97119,-0.267334
154,-1.02839e-38,-0.382255,-0.209407,9.88689,-0.169003,-0.339235,-2.69775,3.97388,-0.272949
155,-1.02955e-38,-0.403406,-0.198041,9.89627,-0.208474,-0.255297,-5.19385,3.97705,-0.266357
156,-1.03072e-38,-0.408299,-0.188964,9.89818,-0.117134,-0.2596,-6.89404,3.97363,-0.269043
157,-1.03189e-38,-0.396482,-0.176625,9.91647,-0.134833,-0.344537,-0.964844,3.97241,-0.268555
158,-1.03306e-38,-0.370811,-0.184672,9.88878,-0.10101,-0.284459,3.78101,3.97412,-0.264893
159,-1.03422e-38,-0.371683,-0.16272,9.8834,-0.139982,-0.385622,-2.48975,3.9751,-0.269043
160,-1.03539e-38,-0.373293,-0.1738,9.88523,-0.194591,-0.292976,-5.58301,3.97388,-0.264893
161,-1.03656e-38,-0.382069,-0.181175,9.90909,-0.151022,-0.354296,1.20874,3.97534,-0.27002
162,-1.03773e-38,-0.392376,-0.182963,9.94031,-0.102534,-0.297714,-7.78979,3.97656,-0.269043
163,-1.0389e-38,-0.401625,-0.191818,9.91107,-0.192696,-0.424351,-7.68604,3.97754,-0.267822
164,-1.04006e-38,-0.410344,-0.197254,9.91298,-0.190519,-0.371842,-5.4812,3.97607,-0.265625
165,-1.04123e-38,-0.413628,-0.19729,9.89654,-0.156068,-0.357498,-3.85278,3.97461,-0.268066
166,-1.0424e-38,-0.373035,-0.196675,9.87243,-0.170386,-0.421072,-4.26978,3.97241,-0.269043
167,-1.04357e-38,-0.380867,-0.178399,9.89823,-0.24167,-0.272638,-1.83325,3.97485,-0.268799
168,-1.04473e-38,-0.382026,-0.173214,9.91658,-0.251762,-0.38552,-4.48047,3.97314,-0.264893
169,-1.0459e-38,-0.353844,-0.170702,9.92736,-0.130812,-0.29377,1.81592,3.97241,-0.265625
170,-1.04707e-38,-0.383085,-0.173513,9.89831,-0.0533032,-0.263801,2.07788,3.97266,-0.265381
171,-1.04824e-38,-0.388521,-0.18435,9.902,-0.144618,-0.3461,-1.80493,3.97314,-0.266113
172,-1.0494e-38,-0.402684,-0.176625,9.87836,-0.14239,-0.316694,-5.26855,3.97412,-0.267822
173,-1.05057e-38,-0.415144,-0.180059,9.88213,-0.0600654,-0.288391,-3.2749,3.97388,-0.270996
174,-1.05174e-38,-0.39297,-0.188084,9.88742,-0.176482,-0.417947,3.48975,3.97607,-0.266113
175,-1.05291e-38,-0.370345,-0.185273,9.88543,-0.258627,-0.3117,-7.78809,3.9751,-0.264404
176,-1.05408e-38,-0.375546,-0.190924,9.89097,-0.234242,-0.343359,7.42261,3.97705,-0.26709
177,-1.05524e-38,-0.389179,-0.181711,9.92043,-0.0923137,-0.356781,-1.5957,3.97339,-0.264893
178,-1.05641e-38,-0.390631,-0.181675,9.90948,-0.204427,-0.397687,-4.00854,3.97339,-0.266602
179,-1.05758e-38,-0.381053,-0.189558,9.92221,-0.232654,-0.356525,7.15918,3.97803,-0.267334
180,-1.05875e-38,-0.378543,-0.180695,9.91309,-0.134885,-0.366079,-3.22388,3.97485,-0.269287
181,-1.05991e-38,-0.39802,-0.169108,9.89136,-0.211625,-0.438567,-0.861084,3.97339,-0.268555
182,-1.06108e-38,-0.393199,-0.20794,9.88568,-0.206732,-0.40888,2.448,3.97046,-0.265381
183,-1.06225e-38,-0.375288,-0.181239,9.88566,-0.184756,-0.399608,-6.78906,3.97363,-0.266113
184,-1.06342e-38,-0.374416,-0.170459,9.88388,-0.297074,-0.366847,7.45044,3.97583,-0.266846
185,-1.06458e-38,-0.370839,-0.191095,9.89111,-0.122206,-0.27105,6.01196,3.97266,-0.266602
186,-1.06575e-38,-0.394229,-0.183027,9.8694,-0.245333,-0.406985,-4.11621,3.97534,-0.266846
187,-1.06692e-38,-0.400788,-0.186897,9.90608,-0.209115,-0.296049,2.02173,3.97534,-0.266846
188,-1.06809e-38,-0.406096,-0.198005,9.92258,-0.156426,-0.349096,-1.33057,3.97119,-0.27002
189,-1.06926e-38,-0.36021,-0.203219,9.89835,-0.139546,-0.359547,2.5979,3.97583,-0.266357
190,-1.07042e-38,-0.412183,-0.181453,9.89345,-0.225649,-0.297343,-7.70776,3.97412,-0.268066
191,-1.07159e-38,-0.391196,-0.16958,9.897,-0.281885,-0.33255,5.0647,3.9751,-0.264893
192,-1.07276e-38,-0.405144,-0.160238,9.88986,-0.191133,-0.364952,-1.01587,3.97119,-0.267334
193,-1.07393e-38,-0.3687,-0.172519,9.86019,-0.252992,-0.357498,5.9585,3.97339,-0.268555
194,-1.07509e-38,-0.364723,-0.174722,9.84917,-0.22497,-0.344844,-1.0708,3.97314,-0.267334
195,-1.07626e-38,-0.369487,-0.182376,9.9023,-0.227352,-0.320408,7.79126,3.97607,-0.265137
196,-1.07743e-38,-0.379916,-0.184186,9.92071,-0.213674,-0.268027,-0.914551,3.97412,-0.268799
197,-1.0786e-38,-0.381618,-0.186117,9.90426,-0.347124,-0.323277,-3.64526,3.97607,-0.268555
198,-1.07976e-38,-0.375403,-0.179429,9.90791,-0.277914,-0.380064,-4.21948,3.97412,-0.27002
199,-1.08093e-38,-0.410151,-0.18204,9.87164,-0.378143,-0.484877,4.80396,3.97388,-0.269287
200,-1.0821e-38,-0.399851,-0.19053,9.94659,-0.267771,-0.339056,3.2334,3.97144,-0.26709
201,-1.08327e-38,-0.383614,-0.19666,9.89515,-0.226251,-0.405422,7.42969,3.97192,-0.263916
202,-1.08444e-38,-0.357649,-0.193985,9.86197,-0.206271,-0.302555,-0.0205078,3.97241,-0.271973
203,-1.0856e-38,-0.3782,-0.166011,9.866,-0.355987,-0.340951,-4.7959,3.97363,-0.266846
204,-1.08677e-38,-0.392312,-0.179021,9.91736,-0.377272,-0.32735,4.22876,3.97241,-0.267822
205,-1.08794e-38,-0.370417,-0.191203,9.90611,-0.353451,-0.38365,5.06616,3.97388,-0.266113
206,-1.08911e-38,-0.392083,-0.194486,9.89717,-0.298739,-0.269948,-0.233887,3.9751,-0.266846
207,-1.09027e-38,-0.385674,-0.17669,9.88805,-0.463566,-0.414592,1.52295,3.97559,-0.271484
208,-1.09144e-38,-0.398678,-0.202533,9.90455,-0.384111,-0.337032,2.65601,3.97192,-0.265381
209,-1.09261e-38,-0.393299,-0.183306,9.95589,-0.363594,-0.279912,-1.17212,3.97046,-0.268555
210,-1.09378e-38,-0.357792,-0.229106,9.9681,-0.143619,-0.250174,5.9519,3.97876,-0.269531
211,-1.09494e-38,-0.364316,-0.199371,9.91157,-0.0909049,-0.377016,1.34082,3.97461,-0.268311
212,-1.09611e-38,-0.381397,-0.167434,9.86984,0.0890735,-0.380192,6.48462,3.97266,-0.269043
213,-1.09728e-38,-0.380081,-0.183542,9.82947,-0.198254,-0.307601,0.924805,3.97192,-0.270752
214,-1.09845e-38,-0.432969,-0.158321,9.89795,-0.230246,-0.372764,-4.63892,3.97412,-0.269043
215,-1.09962e-38,-0.404429,-0.188864,9.88285,-0.148204,-0.313928,-0.866699,3.97754,-0.268311
216,-1.10078e-38,-0.390066,-0.213441,9.90089,-0.216107,-0.338799,2.57104,3.97656,-0.266357
217,-1.10195e-38,-0.356104,-0.198441,9.89697,-0.18099,-0.35719,7.0083,3.9729,-0.269531
218,-1.10312e-38,-0.377091,-0.177533,9.8717,-0.237265,-0.517254,3.17236,3.97803,-0.267822
219,-1.10429e-38,-0.387398,-0.169901,9.84258,-0.130197,-0.371406,1.02612,3.97437,-0.268066
220,-1.10545e-38,-0.408027,-0.171482,9.92523,-0.331858,-0.482572,-4.69556,3.97705,-0.266846
221,-1.10662e-38,-0.373536,-0.193277,9.9101,-0.251532,-0.345895,3.12842,3.97144,-0.269287
222,-1.10779e-38,-0.374895,-0.186038,9.88454,-0.233013,-0.28273,6.42676,3.97656,-0.26709
223,-1.10896e-38,-0.375739,-0.167877,9.87551,-0.278478,-0.309394,-1.69946,3.97266,-0.267822
224,-1.11012e-38,-0.375717,-0.17734,9.87181,-0.155581,-0.34487,-5.63818,3.97607,-0.270508
225,-1.11129e-38,-0.397548,-0.187669,9.88116,-0.134321,-0.323738,-4.37573,3.97339,-0.268799
226,-1.11246e-38,-0.389179,-0.175338,9.89033,-0.0582468,-0.389336,-6.81763,3.9751,-0.27002
227,-1.11363e-38,-0.379723,-0.188671,9.9158,-0.10101,-0.366911,3.67847,3.97217,-0.266846
228,-1.1148e-38,-0.371697,-0.176074,9.89019,-0.0475144,-0.435519,-7.42163,3.97607,-0.266846
229,-1.11596e-38,-0.369623,-0.185294,9.89012,-0.113906,-0.329476,-3.07056,3.97803,-0.266602
230,-1.11713e-38,-0.376905,-0.199836,9.90663,-0.283831,-0.375223,-0.289551,3.97729,-0.264893
231,-1.1183e-38,-0.377663,-0.187333,9.91222,-0.142441,-0.3534,6.63574,3.97705,-0.268066
232,-1.11947e-38,-0.385159,-0.188685,9.86104,-0.0450554,-0.371458,4.38452,3.97363,-0.267822
233,-1.12063e-38,-0.39905,-0.186353,9.87589,-0.16721,-0.408291,4.85693,3.97339,-0.269531
234,-1.1218e-38,-0.396983,-0.193913,9.87402,-0.180657,-0.43931,-6.44971,3.97485,-0.266113
235,-1.12297e-38,-0.397998,-0.192276,9.88687,-0.309061,-0.327094,0.340088,3.97754,-0.267334
236,-1.12414e-38,-0.386168,-0.183978,9.89049,-0.0883179,-0.40345,5.48608,3.97388,-0.266602
237,-1.12531e-38,-0.359337,-0.174229,9.90857,-0.0847831,-0.387082,4.01782,3.97339,-0.267334
238,-1.12647e-38,-0.382777,-0.178814,9.91251,-0.120746,-0.320946,-4.82397,3.97534,-0.27002
239,-1.12764e-38,-0.372005,-0.192118,9.90315,-0.141941,-0.31891,0.368408,3.97607,-0.265869
240,-1.12881e-38,-0.392526,-0.204085,9.87954,-0.194335,-0.391565,-1.07373,3.97534,-0.267822
241,-1.12998e-38,-0.387892,-0.199071,9.89785,-0.19308,-0.340823,-0.891357,3.97632,-0.27002
242,-1.13114e-38,-0.390831,-0.191789,9.89429,-0.0918398,-0.352772,5.45728,3.97583,-0.266846
243,-1.13231e-38,-0.398313,-0.158428,9.87813,-0.17159,-0.401887,-0.470459,3.97559,-0.267578
244,-1.13348e-38,-0.382412,-0.184901,9.87598,-0.227582,-0.415463,6.79468,3.97583,-0.265869
245,-1.13465e-38,-0.372627,-0.183706,9.87405,-0.201994,-0.373456,5.74463,3.97656,-0.266113
246,-1.13581e-38,-0.372027,-0.185852,9.88871,-0.226635,-0.359624,-2.75171,3.97461,-0.265625
247,-1.13698e-38,-0.381754,-0.174823,9.91272,-0.101535,-0.401503,4.12256,3.97339,-0.268311
248,-1.13815e-38,-0.389909,-0.200051,9.89071,-0.235856,-0.323226,1.18433,3.97388,-0.27002
249,-1.13932e-38,-0.395609,-0.16694,9.87087,-0.0981537,-0.458879,-7.04956,3.97192,-0.268311
250,-1.14049e-38,-0.394129,-0.20028,9.90729,-0.282499,-0.451989,1.41748,3.97607,-0.269531
251,-1.14165e-38,-0.382255,-0.191882,9.89808,-0.276083,-0.286278,-2.14624,3.97339,-0.265869
252,-1.14282e-38,-0.38596,-0.203055,9.90172,-0.168875,-0.357754,1.28613,3.97632,-0.269287
253,-1.14399e-38,-0.394851,-0.198971,9.87258,-0.16972,-0.423634,7,3.97925,-0.265137
254,-1.14516e-38,-0.3838,-0.175917,9.89461,-0.124434,-0.25522,-5.68774,3.97388,-0.265381
255,-1.14632e-38,-0.372599,-0.178328,9.89262,-0.14878,-0.308664,-2.19824,3.9729,-0.270996
256,-1.14749e-38,-0.367155,-0.189715,9.89433,-0.132323,-0.348866,-7.81714,3.97754,-0.270264
257,-1.14866e-38,-0.366855,-0.193499,9.89433,-0.111371,-0.262085,-4.32471,3.97437,-0.269531
258,-1.14983e-38,-0.404329,-0.179071,9.89674,-0.171743,-0.410135,-2.3335,3.97607,-0.26709
259,-1.15099e-38,-0.404386,-0.188284,9.88023,-0.255553,-0.255579,-6.52759,3.97412,-0.269287
260,-1.15216e-38,-0.405187,-0.1795,9.9023,-0.227531,-0.256245,-1.17773,3.97485,-0.270996
261,-1.15333e-38,-0.393771,-0.18219,9.91679,-0.0895986,-0.339978,3.61938,3.97729,-0.265869
262,-1.1545e-38,-0.374029,-0.197704,9.90363,-0.215108,-0.420406,3.70264,3.97388,-0.26709
263,-1.15567e-38,-0.380524,-0.188377,9.89099,-0.169259,-0.360905,-2.64648,3.97485,-0.266357
264,-1.15683e-38,-0.381862,-0.192226,9.90382,-0.1303,-0.443741,-5.29517,3.97437,-0.268555
265,-1.158e-38,-0.391539,-0.167849,9.87301,-0.0755364,-0.256194,-7.73169,3.97241,-0.268555
266,-1.15917e-38,-0.413184,-0.172484,9.88976,-0.151867,-0.37092,0.870605,3.97314,-0.268799
267,-1.16034e-38,-0.406503,-0.192977,9.87491,-0.215928,-0.330347,-2.72632,3.97559,-0.271973
268,-1.1615e-38,-0.383156,-0.172262,9.86928,-0.235164,-0.328477,-0.210449,3.97729,-0.264893
269,-1.16267e-38,-0.385917,-0.176353,9.91691,-0.191466,-0.360725,-7.94946,3.97827,-0.26709
270,-1.16384e-38,-0.395652,-0.190545,9.88767,-0.172,-0.429961,7.47485,3.97729,-0.266113
271,-1.16501e-38,-0.379001,-0.162169,9.89135,-0.1303,-0.312673,1.39233,3.97534,-0.267822
272,-1.16617e-38,-0.384472,-0.171196,9.8932,-0.11073,-0.477398,-1.39136,3.97778,-0.268066
273,-1.16734e-38,-0.395545,-0.189099,9.90241,-0.179607,-0.368691,-7.15601,3.97339,-0.266357
274,-1.16851e-38,-0.407691,-0.183156,9.89532,-0.113151,-0.391501,7.92725,3.97241,-0.271484
275,-1.16968e-38,-0.403449,-0.181568,9.89164,-0.249585,-0.439438,4.5647,3.97607,-0.264893
276,-1.17085e-38,-0.399572,-0.189328,9.88974,-0.0978464,-0.405397,3.38452,3.97632,-0.270264
277,-1.17201e-38,-0.382398,-0.184651,9.88223,-0.2304,-0.345895,5.90942,3.97119,-0.264648
278,-1.17318e-38,-0.386511,-0.203026,9.88034,-0.124101,-0.38155,-3.90405,3.97363,-0.269287
279,-1.17435e-38,-0.395896,-0.184415,9.89345,-0.197294,-0.331948,-7.07446,3.97119,-0.268555
280,-1.17552e-38,-0.368379,-0.187648,9.87293,-0.0353092,-0.36896,4.25342,3.97363,-0.266357
281,-1.17668e-38,-0.367177,-0.182376,9.90411,-0.101432,-0.316387,-6.89282,3.97266,-0.268066
282,-1.17785e-38,-0.387963,-0.194035,9.87137,-0.100715,-0.380679,1.31323,3.97559,-0.267578
283,-1.17902e-38,-0.381862,-0.194436,9.87863,-0.105876,-0.304925,-1.04468,3.97339,-0.266846
284,-1.18019e-38,-0.399179,-0.188284,9.89908,-0.147128,-0.330296,7.50415,3.9751,-0.267578
285,-1.18135e-38,-0.394794,-0.183141,9.90091,-0.192337,-0.355244,-2.69727,3.97363,-0.268799
286,-1.18252e-38,-0.392054,-0.178041,9.91192,-0.139828,-0.407266,-7.78467,3.97241,-0.271484
287,-1.18369e-38,-0.382734,-0.184057,9.90445,-0.161459,-0.237995,1.89209,3.97412,-0.263428
288,-1.18486e-38,-0.374916,-0.177183,9.89159,-0.258422,-0.329245,-1.07422,3.97583,-0.267822
289,-1.18603e-38,-0.37227,-0.172147,9.89892,-0.161831,-0.467818,0.604248,3.97632,-0.271973
290,-1.18719e-38,-0.381697,-0.193892,9.91176,-0.161523,-0.300224,2.44434,3.97339,-0.268311
291,-1.18836e-38,-0.376733,-0.208863,9.89877,-0.20412,-0.28588,5.12134,3.97192,-0.266113
292,-1.18953e-38,-0.393013,-0.178986,9.9084,-0.158578,-0.37571,-1.54272,3.97314,-0.266357
293,-1.1907e-38,-0.396618,-0.186231,9.90294,-0.249329,-0.330731,-1.38452,3.97266,-0.267578
294,-1.19186e-38,-0.389472,-0.186575,9.86072,-0.104199,-0.318308,3.67432,3.9751,-0.262695
295,-1.19303e-38,-0.392534,-0.192197,9.89189,-0.188137,-0.398199,-0.837402,3.97534,-0.269775
296,-1.1942e-38,-0.388778,-0.203627,9.90092,-0.215877,-0.323636,4.56665,3.97485,-0.269043
297,-1.19537e-38,-0.386211,-0.192855,9.88268,-0.169848,-0.311572,4.80396,3.97412,-0.267822
298,-1.19653e-38,-0.368178,-0.203019,9.86953,-0.178992,-0.337442,4.17603,3.9729,-0.268555
299,-1.1977e-38,-0.383428,-0.202762,9.92106,-0.147884,-0.243553,-1.20605,3.97607,-0.263916
300,-1.19887e-38,-0.384036,-0.180745,9.90477,-0.199612,-0.283242,4.2229,3.97681,-0.267334
301,-1.20004e-38,-0.393206,-0.184014,9.89026,-0.238289,-0.350685,-0.0214844,3.97314,-0.269043
302,-1.20121e-38,-0.367134,-0.185638,9.88987,-0.23332,-0.365822,-3.98462,3.9751,-0.264404
303,-1.20237e-38,-0.38159,-0.198134,9.91381,-0.113356,-0.306846,-3.98633,3.97656,-0.265137
304,-1.20354e-38,-0.377827,-0.167176,9.90671,-0.30568,-0.422763,-1.3335,3.97363,-0.264404
305,-1.20471e-38,-0.388771,-0.174201,9.89585,-0.264108,-0.346919,7.68823,3.97461,-0.265137
306,-1.20588e-38,-0.392498,-0.179672,9.87941,-0.246332,-0.340618,-7.36523,3.9729,-0.266602
307,-1.20704e-38,-0.357349,-0.185552,9.88801,-0.176111,-0.285022,3.04883,3.97241,-0.266357
308,-1.20821e-38,-0.382613,-0.189994,9.90484,-0.176764,-0.336187,2.1001,3.97534,-0.266602
309,-1.20938e-38,-0.382155,-0.184536,9.88659,-0.155811,-0.513565,-0.126221,3.9729,-0.268311
310,-1.21055e-38,-0.387069,-0.184329,9.87755,-0.297983,-0.383663,3.8855,3.97437,-0.268066
311,-1.21171e-38,-0.398878,-0.182369,9.90159,-0.181579,-0.391821,4.33032,3.9751,-0.269287
312,-1.21288e-38,-0.37689,-0.187254,9.88292,-0.175227,-0.344511,-6.47729,3.97559,-0.268799
313,-1.21405e-38,-0.398091,-0.18827,9.90707,-0.109936,-0.324532,-5.05566,3.97217,-0.26709
314,-1.21522e-38,-0.396961,-0.175567,9.90717,-0.184627,-0.350275,-3.00952,3.97144,-0.264404
315,-1.21639e-38,-0.373364,-0.182369,9.8848,-0.0984611,-0.26083,-6.26172,3.97168,-0.271484
316,-1.21755e-38,-0.356362,-0.179701,9.88457,-0.154403,-0.295768,7.26807,3.97485,-0.266357
317,-1.21872e-38,-0.390552,-0.178027,9.89431,-0.233666,-0.36563,4.83008,3.97388,-0.268066
318,-1.21989e-38,-0.377913,-0.191832,9.89767,-0.229952,-0.293629,-6.50146,3.97412,-0.268799
319,-1.22106e-38,-0.391082,-0.204163,9.89413,-0.299507,-0.342872,-7.08179,3.97681,-0.268311
320,-1.22222e-38,-0.384394,-0.193928,9.90329,-0.20745,-0.332268,6.71509,3.97656,-0.27002
321,-1.22339e-38,-0.38189,-0.198155,9.93071,-0.0974365,-0.369537,-1.02002,3.97461,-0.269287
322,-1.22456e-38,-0.394537,-0.193563,9.89618,-0.196205,-0.3649,4.38574,3.9729,-0.266602
323,-1.22573e-38,-0.38159,-0.174465,9.91814,-0.219386,-0.262674,1.34204,3.97363,-0.270264
324,-1.2269e-38,-0.371426,-0.18978,9.89771,-0.19518,-0.515973,-5.58325,3.97412,-0.269775
325,-1.22806e-38,-0.394408,-0.179286,9.87074,-0.115815,-0.375543,3.62329,3.97412,-0.269043
326,-1.22923e-38,-0.384387,-0.185745,9.91267,-0.148716,-0.408573,6.95825,3.97095,-0.267822
327,-1.2304e-38,-0.380152,-0.188013,9.91994,-0.2773,-0.341335,5.06641,3.97363,-0.268066
328,-1.23157e-38,-0.386232,-0.204421,9.91259,-0.179223,-0.369024,-0.601318,3.97534,-0.268311
329,-1.23273e-38,-0.4045,-0.203305,9.88362,-0.0586054,-0.27899,7.4248,3.97534,-0.269043
330,-1.2339e-38,-0.387047,-0.197068,9.89624,-0.226532,-0.310342,3.12207,3.97632,-0.267578
331,-1.23507e-38,-0.378571,-0.186839,9.90353,-0.281936,-0.318052,-1.96118,3.97217,-0.266846
332,-1.23624e-38,-0.372813,-0.191181,9.90708,-0.192581,-0.351901,4.51685,3.9729,-0.269043
333,-1.2374e-38,-0.390645,-0.182791,9.88,-0.159871,-0.46509,4.45679,3.97852,-0.265869
334,-1.23857e-38,-0.373278,-0.189708,9.91632,-0.118953,-0.336443,1.86279,3.97656,-0.270508
335,-1.23974e-38,-0.377477,-0.176747,9.92202,-0.139213,-0.29149,-6.47729,3.97559,-0.266357
336,-1.24091e-38,-0.386962,-0.185366,9.9093,-0.304835,-0.254119,3.06763,3.97778,-0.269531
337,-1.24208e-38,-0.389501,-0.170867,9.90582,-0.201097,-0.450478,-1.86182,3.97607,-0.268555
338,-1.24324e-38,-0.376046,-0.191718,9.86881,-0.0619096,-0.387108,-5.11157,3.97461,-0.267822
339,-1.24441e-38,-0.392341,-0.178256,9.91136,-0.287443,-0.300045,-1.96338,3.97412,-0.268066
340,-1.24558e-38,-0.385581,-0.184179,9.87458,-0.147051,-0.317258,-6.21216,3.97363,-0.265381
341,-1.24675e-38,-0.38247,-0.179243,9.90574,-0.23081,-0.354629,-6.50537,3.97729,-0.269531
342,-1.24791e-38,-0.39164,-0.184343,9.89487,-0.179389,-0.387274,4.19653,3.97705,-0.267822
343,-1.24908e-38,-0.376304,-0.183614,9.90014,-0.30618,-0.43566,-1.98999,3.97437,-0.267334
344,-1.25025e-38,-0.391153,-0.172226,9.92068,-0.220936,-0.372444,-6.13306,3.97339,-0.269043
345,-1.25142e-38,-0.382362,-0.17822,9.88936,-0.129506,-0.42161,-3.01685,3.97705,-0.267822
346,-1.25258e-38,-0.37453,-0.180645,9.8929,-0.19349,-0.293104,2.23193,3.9751,-0.270508
347,-1.25375e-38,-0.384272,-0.196753,9.89294,-0.238289,-0.363901,-4.27295,3.97485,-0.264893
348,-1.25492e-38,-0.390145,-0.185781,9.90965,-0.244616,-0.4754,-4.58911,3.97607,-0.269775
349,-1.25609e-38,-0.39174,-0.1895,9.89869,-0.119439,-0.359624,0.759766,3.97729,-0.267578
350,-1.25726e-38,-0.387019,-0.182576,9.90602,-0.166185,-0.425222,2.17871,3.97559,-0.264404
351,-1.25842e-38,-0.391897,-0.18244,9.90798,-0.114419,-0.33319,-3.69556,3.97461,-0.27002
352,-1.25959e-38,-0.383671,-0.170016,9.88966,-0.146846,-0.363184,-7.31348,3.97339,-0.266846
353,-1.26076e-38,-0.384186,-0.190387,9.90232,-0.183654,-0.293385,-7.94482,3.97485,-0.266602
354,-1.26193e-38,-0.381726,-0.181389,9.88406,-0.236855,-0.402963,-1.75195,3.97266,-0.266846
355,-1.26309e-38,-0.401489,-0.18219,9.87894,-0.213226,-0.397392,-3.19702,3.97437,-0.267822
356,-1.26426e-38,-0.390109,-0.194378,9.90978,-0.12647,-0.369216,5.19385,3.97656,-0.270996
357,-1.26543e-38,-0.394579,-0.175531,9.87528,-0.210946,-0.366962,-7.97681,3.979,-0.264404
358,-1.2666e-38,-0.374437,-0.188105,9.88765,-0.175445,-0.275315,-7.49658,3.9729,-0.269043
359,-1.26776e-38,-0.399393,-0.188727,9.91008,-0.127713,-0.370203,5.06836,3.97241,-0.266846
360,-1.26893e-38,-0.380968,-0.189801,9.88961,-0.147551,-0.392858,-1.77979,3.97412,-0.269287
361,-1.2701e-38,-0.380796,-0.197304,9.89506,-0.0919807,-0.304553,1.20874,3.97534,-0.27002
362,-1.27127e-38,-0.395237,-0.200115,9.89531,-0.218669,-0.377784,2.70239,3.97632,-0.265381
363,-1.27244e-38,-0.38071,-0.173478,9.86788,-0.124767,-0.40678,-5.89917,3.9751,-0.26709
364,-1.2736e-38,-0.375767,-0.174215,9.9081,-0.225636,-0.292361,5.21948,3.97681,-0.265869
365,-1.27477e-38,-0.373328,-0.192748,9.88408,-0.206886,-0.354936,-7.97095,3.97485,-0.268066
366,-1.27594e-38,-0.378922,-0.178056,9.90084,-0.222011,-0.375979,-7.97217,3.97583,-0.266113
367,-1.27711e-38,-0.389258,-0.175781,9.90108,-0.115648,-0.39428,6.34741,3.97705,-0.268311
368,-1.27827e-38,-0.383113,-0.174401,9.90101,-0.166723,-0.340003,7.26685,3.97583,-0.270508
369,-1.27944e-38,-0.397462,-0.175438,9.89762,-0.176098,-0.267413,-6.87012,3.9751,-0.269287
370,-1.28061e-38,-0.383714,-0.192905,9.88805,-0.183744,-0.329975,5.61133,3.97827,-0.27002
371,-1.28178e-38,-0.403363,-0.193692,9.89577,-0.0921856,-0.338671,-0.335449,3.97266,-0.265869
372,-1.28294e-38,-0.386625,-0.196632,9.89362,-0.127674,-0.376952,-7.65454,3.97339,-0.266357
373,-1.28411e-38,-0.363887,-0.198341,9.90969,-0.0612949,-0.318718,-6.21387,3.9751,-0.268066
374,-1.28528e-38,-0.374201,-0.190201,9.89534,-0.246947,-0.45163,5.85522,3.97217,-0.265869
375,-1.28645e-38,-0.390173,-0.18935,9.88834,-0.224509,-0.339593,7.8457,3.97461,-0.269531
376,-1.28762e-38,-0.366748,-0.200201,9.87867,-0.165903,-0.349583,-0.914551,3.97412,-0.263916
377,-1.28878e-38,-0.375117,-0.172426,9.89562,-0.128225,-0.335009,-2.9917,3.97778,-0.266602
378,-1.28995e-38,-0.384616,-0.180953,9.88474,-0.186087,-0.399556,6.85156,3.97266,-0.268066
379,-1.29112e-38,-0.390831,-0.177197,9.90142,-0.133937,-0.37197,-5.9502,3.97388,-0.266846
380,-1.29229e-38,-0.393256,-0.187948,9.88123,-0.129403,-0.311008,-6.6814,3.97144,-0.271484
381,-1.29345e-38,-0.403256,-0.189529,9.91623,-0.149613,-0.411006,-5.37476,3.9751,-0.267334
382,-1.29462e-38,-0.382069,-0.181847,9.91227,-0.234998,-0.345549,-2.61816,3.97314,-0.270508
383,-1.29579e-38,-0.379988,-0.174551,9.8757,-0.16712,-0.331461,7.03394,3.97363,-0.270264
384,-1.29696e-38,-0.377849,-0.186138,9.90669,-0.162958,-0.417128,7.47754,3.9751,-0.268799
385,-1.29812e-38,-0.372198,-0.188341,9.89195,-0.1981,-0.438926,2.07422,3.97534,-0.267578
386,-1.29929e-38,-0.384158,-0.185938,9.89774,-0.113343,-0.385648,0.450928,3.97314,-0.266846
387,-1.30046e-38,-0.3734,-0.199643,9.90473,-0.235523,-0.342693,7.05615,3.97632,-0.268066
388,-1.30163e-38,-0.378528,-0.191904,9.8738,-0.175125,-0.302094,6.24316,3.97632,-0.264893
389,-1.3028e-38,-0.381232,-0.194042,9.90866,-0.13961,-0.38146,2.89111,3.97266,-0.269531
390,-1.30396e-38,-0.376361,-0.21098,9.9084,-0.227992,-0.29838,-4.19385,3.97461,-0.267578
391,-1.30513e-38,-0.390645,-0.180774,9.8962,-0.145847,-0.30463,-2.69995,3.97559,-0.265869
392,-1.3063e-38,-0.389894,-0.195394,9.87225,-0.201482,-0.330321,-4.7959,3.97363,-0.266602
393,-1.30747e-38,-0.392062,-0.184565,9.88707,-0.178019,-0.374762,7.53735,3.96973,-0.266357
394,-1.30863e-38,-0.389594,-0.19063,9.91264,-0.0840275,-0.354104,0.895264,3.97437,-0.269043
395,-1.3098e-38,-0.385395,-0.183399,9.89069,-0.0857565,-0.360674,-4.3252,3.97461,-0.267334
396,-1.31097e-38,-0.375975,-0.189665,9.89961,-0.220487,-0.352477,3.07397,3.97314,-0.265381
397,-1.31214e-38,-0.365389,-0.199693,9.88833,-0.152123,-0.386365,-4.95508,3.9751,-0.269531
398,-1.31331e-38,-0.404128,-0.180509,9.87835,-0.246691,-0.299021,5.95972,3.97266,-0.264404
399,-1.31447e-38,-0.382048,-0.19925,9.92352,-0.214929,-0.285419,0.240967,3.97314,-0.268555
400,-1.31564e-38,-0.376955,-0.195673,9.87219,-0.154006,-0.281001,-6.8147,3.97314,-0.266357
401,-1.31681e-38,-0.385646,-0.173349,9.89095,-0.255451,-0.304246,5.5083,3.97656,-0.266602
402,-1.31798e-38,-0.395266,-0.160109,9.89313,-0.16096,-0.341515,-3.16919,3.97339,-0.269531
403,-1.31914e-38,-0.36644,-0.178929,9.90703,-0.134193,-0.369485,-5.64111,3.97803,-0.267822
404,-1.32031e-38,-0.382956,-0.20515,9.88329,-0.177814,-0.372405,-3.48657,3.97534,-0.266113
405,-1.32148e-38,-0.390045,-0.190366,9.90927,-0.10165,-0.427284,1.4209,3.97363,-0.266357
406,-1.32265e-38,-0.380588,-0.194743,9.90907,-0.1178,-0.359163,0.24292,3.97192,-0.268555
407,-1.32381e-38,-0.402755,-0.196696,9.8857,-0.265645,-0.448095,-7.47437,3.97583,-0.268799
408,-1.32498e-38,-0.395087,-0.181182,9.9059,-0.179274,-0.355756,-7.20947,3.97412,-0.266357
409,-1.32615e-38,-0.384308,-0.187491,9.89282,-0.188636,-0.311405,1.68018,3.97583,-0.26709
410,-1.32732e-38,-0.384523,-0.18734,9.86172,-0.19869,-0.303401,1.42627,3.96948,-0.264404
411,-1.32849e-38,-0.389236,-0.17116,9.91146,-0.235933,-0.345715,4.06738,3.97534,-0.268066
412,-1.32965e-38,-0.387677,-0.176869,9.89491,-0.189878,-0.430985,-2.01733,3.97485,-0.268311
413,-1.33082e-38,-0.395388,-0.185488,9.87853,-0.133988,-0.42307,2.02246,3.97461,-0.267578
414,-1.33199e-38,-0.392476,-0.184121,9.89682,-0.280655,-0.447455,-2.75195,3.9751,-0.265625
415,-1.33316e-38,-0.38096,-0.187118,9.90026,-0.220654,-0.270525,-6.86768,3.97363,-0.264893
416,-1.33432e-38,-0.40086,-0.183921,9.88607,-0.106978,-0.36686,-0.628174,3.97559,-0.266602
417,-1.33549e-38,-0.385088,-0.194064,9.86185,-0.111422,-0.377784,4.80444,3.97339,-0.267334
418,-1.33666e-38,-0.383771,-0.194586,9.90031,-0.188418,-0.313185,0.76123,3.97656,-0.270508
419,-1.33783e-38,-0.391911,-0.203083,9.87293,-0.184371,-0.365515,-5.53149,3.97461,-0.263916
420,-1.33899e-38,-0.391847,-0.18302,9.86952,-0.169413,-0.448044,-4.14111,3.97437,-0.265381
421,-1.34016e-38,-0.370553,-0.190687,9.91665,-0.117275,-0.35792,-7.49707,3.97339,-0.267578
422,-1.34133e-38,-0.393185,-0.172291,9.88988,-0.153442,-0.32393,-6.44922,3.97437,-0.268799
423,-1.3425e-38,-0.383829,-0.182505,9.91157,-0.14928,-0.28775,-4.21777,3.9729,-0.267578
424,-1.34367e-38,-0.385145,-0.182583,9.91712,-0.11967,-0.369152,-7.41724,3.97241,-0.264404
425,-1.34483e-38,-0.378342,-0.194085,9.90771,-0.217119,-0.300801,1.46802,3.97754,-0.269531
426,-1.346e-38,-0.382963,-0.17518,9.86592,-0.19025,-0.340605,-6.55371,3.97412,-0.266602
427,-1.34717e-38,-0.382212,-0.185044,9.91161,-0.195539,-0.243233,-2.48535,3.97192,-0.269287
428,-1.34834e-38,-0.39056,-0.19538,9.88604,-0.0968986,-0.328144,7.00317,3.97705,-0.265625
429,-1.3495e-38,-0.367134,-0.191961,9.91674,-0.11926,-0.376043,-7.73438,3.97437,-0.265869
430,-1.35067e-38,-0.377291,-0.189515,9.92435,-0.175317,-0.321138,7.08789,3.97241,-0.263184
431,-1.35184e-38,-0.38483,-0.1888,9.8934,-0.249662,-0.404167,0.631592,3.97534,-0.264648
432,-1.35301e-38,-0.381175,-0.172812,9.89537,-0.138112,-0.350736,-7.83887,3.97412,-0.268799
433,-1.35417e-38,-0.399236,-0.182827,9.92132,-0.120861,-0.442115,2.9375,3.97705,-0.268555
434,-1.35534e-38,-0.374916,-0.171397,9.87518,-0.14198,-0.429679,-2.22876,3.97607,-0.264893
435,-1.35651e-38,-0.396711,-0.181031,9.89205,-0.212906,-0.415924,-6.66431,3.97827,-0.269531
436,-1.35768e-38,-0.408806,-0.180359,9.89785,-0.159884,-0.368051,-5.89844,3.97461,-0.266357
437,-1.35885e-38,-0.387634,-0.196732,9.89172,-0.216722,-0.367001,5.17407,3.97168,-0.266113
438,-1.36001e-38,-0.389916,-0.177097,9.94516,-0.192786,-0.353387,5.46094,3.9729,-0.264648
439,-1.36118e-38,-0.401775,-0.185237,9.91421,-0.172653,-0.303388,7.13892,3.97339,-0.265381
440,-1.36235e-38,-0.382949,-0.183098,9.90835,-0.281308,-0.359176,4.82471,3.97827,-0.269043
441,-1.36352e-38,-0.37649,-0.198484,9.89889,-0.157028,-0.40482,5.82202,3.97754,-0.265381
442,-1.36468e-38,-0.391718,-0.180624,9.872,-0.240415,-0.359009,3.17236,3.97803,-0.265625
443,-1.36585e-38,-0.375889,-0.180516,9.89915,-0.229939,-0.324635,0.237305,3.97607,-0.266357
444,-1.36702e-38,-0.394744,-0.170145,9.90338,-0.229222,-0.360162,5.43506,3.97266,-0.266846
445,-1.36819e-38,-0.399665,-0.17194,9.91266,-0.114163,-0.419997,2.39526,3.9707,-0.270508
446,-1.36935e-38,-0.382312,-0.189765,9.90293,-0.152494,-0.357997,-6.18286,3.97144,-0.266846
447,-1.37052e-38,-0.394193,-0.181539,9.89601,-0.219578,-0.440731,-4.81934,3.97168,-0.270508
448,-1.37169e-38,-0.375918,-0.194329,9.90829,-0.268437,-0.326044,-1.91064,3.97388,-0.263916
449,-1.37286e-38,-0.388921,-0.195179,9.88479,-0.120681,-0.340324,0.211426,3.97583,-0.269531
450,-1.37403e-38,-0.381411,-0.159358,9.90891,-0.227365,-0.306769,5.50854,3.97656,-0.265625
451,-1.37519e-38,-0.395259,-0.180659,9.91997,-0.160473,-0.377887,-4.1145,3.97412,-0.265381
452,-1.37636e-38,-0.407068,-0.16483,9.88931,-0.205298,-0.35655,-7.18433,3.97485,-0.267578
453,-1.37753e-38,-0.384601,-0.185008,9.87577,-0.122385,-0.280834,-5.47778,3.97363,-0.266846
454,-1.3787e-38,-0.398721,-0.178313,9.86154,-0.120259,-0.332217,4.38159,3.97607,-0.269531
455,-1.37986e-38,-0.384501,-0.179973,9.90518,-0.074563,-0.243515,0.39624,3.97485,-0.266357
456,-1.38103e-38,-0.3785,-0.176754,9.90145,-0.147538,-0.348994,-7.552,3.9751,-0.268311
457,-1.3822e-38,-0.379194,-0.180066,9.86298,-0.0996906,-0.346048,2.23096,3.97559,-0.268555
458,-1.38337e-38,-0.372456,-0.188628,9.9232,-0.0906488,-0.330962,-3.11475,3.97168,-0.266846
459,-1.38453e-38,-0.387606,-0.185102,9.87415,-0.224406,-0.345997,-1.54565,3.97534,-0.26709
460,-1.3857e-38,-0.386733,-0.187476,9.89794,-0.154518,-0.377003,1.31128,3.97705,-0.263916
461,-1.38687e-38,-0.388779,-0.200416,9.91068,-0.163099,-0.410788,-1.15186,3.9751,-0.267578
462,-1.38804e-38,-0.38875,-0.202204,9.89421,-0.0671477,-0.352285,-5.34863,3.97534,-0.266602
463,-1.38921e-38,-0.374838,-0.199815,9.91043,-0.17638,-0.4118,-5.00757,3.97485,-0.268799
464,-1.39037e-38,-0.384344,-0.176732,9.8725,-0.206015,-0.394587,5.69141,3.97705,-0.266113
465,-1.39154e-38,-0.385703,-0.174873,9.86343,-0.176841,-0.298534,-7.76123,3.97461,-0.264404
466,-1.39271e-38,-0.37752,-0.194114,9.86852,-0.208666,-0.358023,3.1499,3.9751,-0.269531
467,-1.39388e-38,-0.365775,-0.18292,9.91604,-0.17451,-0.364286,1.52393,3.97485,-0.266846
468,-1.39504e-38,-0.378214,-0.176268,9.8908,-0.249431,-0.336341,-4.53296,3.97314,-0.269531
469,-1.39621e-38,-0.39415,-0.18096,9.91129,-0.23309,-0.397277,-6.2085,3.97095,-0.268066
470,-1.39738e-38,-0.372155,-0.188492,9.91071,-0.0944653,-0.319717,5.3291,3.97339,-0.267334
471,-1.39855e-38,-0.389615,-0.185373,9.92034,-0.254337,-0.306846,0.0554199,3.97461,-0.263672
472,-1.39971e-38,-0.389766,-0.165231,9.90415,-0.0625756,-0.324788,2.4668,3.97583,-0.267334
473,-1.40088e-38,-0.387176,-0.187612,9.91664,-0.0277658,-0.30965,6.14014,3.9751,-0.266357
474,-1.40205e-38,-0.391876,-0.170173,9.87488,-0.139341,-0.403834,-0.18335,3.97656,-0.267578
475,-1.40322e-38,-0.400767,-0.182719,9.90609,-0.124075,-0.351146,5.85522,3.97241,-0.265869
476,-1.40439e-38,-0.386189,-0.1895,9.90387,-0.198267,-0.27575,0.374268,3.97192,-0.269043
477,-1.40555e-38,-0.375167,-0.17415,9.91116,-0.289082,-0.37553,3.80884,3.97266,-0.267334
478,-1.40672e-38,-0.38664,-0.188291,9.9186,-0.256398,-0.40199,3.98926,3.9751,-0.269531
479,-1.40789e-38,-0.386833,-0.177583,9.9261,-0.147551,-0.375056,6.87646,3.97363,-0.266846
480,-1.40906e-38,-0.394608,-0.196725,9.87844,-0.245346,-0.304182,-7.81519,3.97607,-0.266113
481,-1.41022e-38,-0.406088,-0.178184,9.92844,-0.208782,-0.435032,-2.56714,3.97437,-0.26709
482,-1.41139e-38,-0.390323,-0.184829,9.89504,-0.282935,-0.36467,6.90137,3.97461,-0.265869
483,-1.41256e-38,-0.392341,-0.190373,9.88588,-0.259549,-0.376785,-2.80103,3.97266,-0.269531
484,-1.41373e-38,-0.350296,-0.175738,9.8796,-0.171142,-0.320139,-2.04272,3.97437,-0.268799
485,-1.4149e-38,-0.390667,-0.169193,9.91549,-0.199893,-0.338518,-2.33081,3.97412,-0.266846
486,-1.41606e-38,-0.402727,-0.174207,9.94506,-0.129659,-0.334727,1.91968,3.97314,-0.26416
487,-1.41723e-38,-0.395781,-0.174508,9.91194,-0.176444,-0.350749,-4.55835,3.97266,-0.265869
488,-1.4184e-38,-0.394723,-0.177984,9.87343,-0.167837,-0.346266,-6.44775,3.97314,-0.268066
489,-1.41957e-38,-0.395295,-0.180345,9.91192,-0.10854,-0.397571,-2.40527,3.97095,-0.264404
490,-1.42073e-38,-0.389193,-0.173306,9.88991,-0.1178,-0.432676,0.813965,3.97632,-0.27002
491,-1.4219e-38,-0.368035,-0.1841,9.8673,-0.304989,-0.383394,1.39282,3.97485,-0.269775
492,-1.42307e-38,-0.368164,-0.181146,9.90219,-0.163265,-0.407497,-2.54126,3.97461,-0.268066
493,-1.42424e-38,-0.39322,-0.184829,9.91927,-0.131785,-0.333549,4.22412,3.97583,-0.268555
494,-1.4254e-38,-0.376333,-0.18445,9.91339,-0.206579,-0.348251,0.186279,3.9751,-0.266846
495,-1.42657e-38,-0.382212,-0.185638,9.88423,-0.206809,-0.241619,2.38892,3.97534,-0.27002
496,-1.42774e-38,-0.40493,-0.204371,9.90837,-0.0925698,-0.405653,-0.128662,3.97485,-0.264404
497,-1.42891e-38,-0.385932,-0.198491,9.89153,-0.215441,-0.34756,4.96216,3.97339,-0.266113
498,-1.43008e-38,-0.383156,-0.173249,9.89549,-0.191428,-0.349135,-6.18921,3.97607,-0.27002
499,-1.43124e-38,-0.377477,-0.181432,9.90993,-0.210626,-0.369485,-5.03418,3.97534,-0.268799
500,-1.43241e-38,-0.372956,-0.192805,9.88953,-0.201315,-0.284075,-2.14575,3.9729,-0.268066
501,-1.43358e-38,-0.390874,-0.169329,9.88485,-0.302325,-0.321074,2.28467,3.97485,-0.264893
502,-1.43475e-38,-0.39189,-0.16973,9.89954,-0.159807,-0.300481,-6.68213,3.97192,-0.268066
503,-1.43591e-38,-0.381168,-0.183907,9.91925,-0.222319,-0.379769,0.688477,3.97217,-0.269287
504,-1.43708e-38,-0.375367,-0.195158,9.87685,-0.143504,-0.355666,3.83374,3.97363,-0.267822
505,-1.43825e-38,-0.38546,-0.198377,9.90457,-0.199279,-0.4337,-0.862061,3.97388,-0.268555
506,-1.43942e-38,-0.379916,-0.1786,9.88642,-0.180401,-0.270538,-0.967285,3.97437,-0.265869
507,-1.44058e-38,-0.377091,-0.191846,9.88435,-0.229401,-0.31964,-7.26465,3.97632,-0.266113
508,-1.44175e-38,-0.38252,-0.180788,9.90298,-0.330436,-0.408611,-1.46729,3.97559,-0.263428
509,-1.44292e-38,-0.374702,-0.176082,9.88274,-0.110256,-0.317962,3.25562,3.97461,-0.26709
510,-1.44409e-38,-0.382298,-0.178943,9.86644,-0.211074,-0.364247,6.35132,3.97388,-0.269287
511,-1.44526e-38,-0.388929,-0.186296,9.8995,-0.290299,-0.414963,-4.03589,3.97412,-0.269287
512,-1.44642e-38,-0.39719,-0.185995,9.91074,-0.212573,-0.412082,7.21509,3.97534,-0.267578
513,-1.44759e-38,-0.3939,-0.195623,9.9069,-0.201789,-0.30901,-0.862305,3.97437,-0.265869
514,-1.44876e-38,-0.397598,-0.199092,9.90147,-0.22082,-0.377272,-4.74536,3.97534,-0.26709
515,-1.44993e-38,-0.394451,-0.194207,9.91431,-0.188393,-0.445739,-1.28149,3.97388,-0.267822
516,-1.45109e-38,-0.386261,-0.183735,9.88681,-0.186062,-0.332857,0.893799,3.97534,-0.267334
517,-1.45226e-38,-0.37071,-0.18553,9.90657,-0.0938506,-0.317949,0.13916,3.9707,-0.268066
518,-1.45343e-38,-0.394966,-0.176124,9.91468,-0.10448,-0.272535,3.69995,3.97559,-0.262939
519,-1.4546e-38,-0.387927,-0.180345,9.90346,-0.263097,-0.375517,2.36157,3.97632,-0.266113
520,-1.45576e-38,-0.383671,-0.197432,9.89398,-0.205926,-0.39232,5.14526,3.97363,-0.262939
521,-1.45693e-38,-0.38458,-0.193885,9.89592,-0.156862,-0.311367,6.24365,3.97607,-0.267578
522,-1.4581e-38,-0.386254,-0.18797,9.86677,-0.151111,-0.345702,-0.835693,3.97388,-0.264648
523,-1.45927e-38,-0.393886,-0.20234,9.88694,-0.245128,-0.386365,-1.8103,3.97705,-0.263916
524,-1.46044e-38,-0.375131,-0.18405,9.88675,-0.203121,-0.293949,-6.99854,3.97339,-0.269531
525,-1.4616e-38,-0.394472,-0.202876,9.89982,-0.15991,-0.376811,-7.99878,3.97583,-0.265869
526,-1.46277e-38,-0.38792,-0.200015,9.9089,-0.147013,-0.281616,5.98584,3.9729,-0.270996
527,-1.46394e-38,-0.383063,-0.183713,9.88338,-0.307755,-0.377451,2.55103,3.97192,-0.267822
528,-1.46511e-38,-0.371776,-0.194593,9.9086,-0.18514,-0.350198,2.07935,3.97168,-0.270752
529,-1.46627e-38,-0.375388,-0.194229,9.89225,-0.149011,-0.321676,0.105713,3.97632,-0.266113
530,-1.46744e-38,-0.391747,-0.19264,9.87808,-0.187138,-0.323021,5.37891,3.97559,-0.264893
531,-1.46861e-38,-0.397383,-0.187097,9.90582,-0.191185,-0.309881,-1.96631,3.97607,-0.27002
532,-1.46978e-38,-0.407662,-0.178764,9.88974,-0.188546,-0.455831,-7.28979,3.9751,-0.267334
533,-1.47094e-38,-0.375174,-0.187218,9.87231,-0.114598,-0.328323,-5.27246,3.97681,-0.265137
534,-1.47211e-38,-0.40091,-0.173929,9.87871,-0.151688,-0.35883,2.44312,3.97412,-0.268066
535,-1.47328e-38,-0.371919,-0.18985,9.89788,-0.226776,-0.369729,5.51416,3.97241,-0.266357
536,-1.47445e-38,-0.390445,-0.177298,9.8986,-0.228966,-0.347534,-7.26489,3.97632,-0.269043
537,-1.47562e-38,-0.378063,-0.187869,9.89814,-0.15722,-0.380141,-4.53491,3.97485,-0.267822
538,-1.47678e-38,-0.386654,-0.209371,9.90724,-0.282243,-0.405063,-3.58862,3.97314,-0.266602
539,-1.47795e-38,-0.393671,-0.210787,9.90378,-0.135013,-0.39761,4.69751,3.9751,-0.268311
540,-1.47912e-38,-0.370052,-0.196367,9.89057,-0.231092,-0.422789,-0.549561,3.97559,-0.265381
541,-1.48029e-38,-0.394029,-0.164923,9.89356,-0.200905,-0.392628,-3.24854,3.97388,-0.27002
542,-1.48145e-38,-0.385259,-0.177026,9.89867,-0.188521,-0.330629,4.07056,3.97314,-0.264404
543,-1.48262e-38,-0.393671,-0.176511,9.9081,-0.197998,-0.273227,-0.968262,3.9751,-0.265625
544,-1.48379e-38,-0.374473,-0.191388,9.90737,-0.151995,-0.392333,1.6521,3.97705,-0.264893
545,-1.48496e-38,-0.376776,-0.174365,9.88025,-0.253504,-0.465692,-1.91113,3.97412,-0.267334
546,-1.48612e-38,-0.384902,-0.174,9.89333,-0.161767,-0.296062,-5.50464,3.97412,-0.265625
547,-1.48729e-38,-0.389887,-0.199729,9.91875,-0.0789815,-0.328259,-3.4082,3.97559,-0.264893
548,-1.48846e-38,-0.400638,-0.185995,9.93212,-0.275187,-0.393857,-3.56201,3.97314,-0.269531
549,-1.48963e-38,-0.37639,-0.186682,9.92598,-0.191953,-0.435493,-7.31299,3.9729,-0.266846
550,-1.4908e-38,-0.390223,-0.181747,9.91914,-0.291452,-0.25864,7.2959,3.97388,-0.270508
551,-1.49196e-38,-0.389379,-0.17086,9.89916,-0.118261,-0.334804,6.68896,3.97656,-0.268799
552,-1.49313e-38,-0.366969,-0.189543,9.89279,-0.195923,-0.302965,-6.4248,3.97559,-0.268311
553,-1.4943e-38,-0.394279,-0.184994,9.87348,-0.156016,-0.36239,4.95874,3.97583,-0.267578
554,-1.49547e-38,-0.381282,-0.173642,9.88616,-0.138804,-0.255169,6.76685,3.97705,-0.265381
555,-1.49663e-38,-0.384186,-0.197769,9.91703,-0.165622,-0.293078,-2.17603,3.97607,-0.26709
556,-1.4978e-38,-0.385195,-0.202926,9.88586,-0.178634,-0.42453,6.9043,3.97241,-0.264893
557,-1.49897e-38,-0.390588,-0.195466,9.90815,-0.235997,-0.321676,-2.51221,3.97241,-0.268799
558,-1.50014e-38,-0.381325,-0.180016,9.90632,-0.246716,-0.392205,-0.154297,3.97437,-0.266113
559,-1.50131e-38,-0.388578,-0.175473,9.87549,-0.177712,-0.303119,2.02539,3.97241,-0.265381
560,-1.50247e-38,-0.362907,-0.187626,9.89843,-0.209332,-0.361045,-5.71411,3.97388,-0.269043
561,-1.50364e-38,-0.365145,-0.172641,9.88044,-0.187983,-0.339414,1.39233,3.97534,-0.266846
562,-1.50481e-38,-0.387233,-0.179944,9.8883,-0.0728981,-0.295614,3.01953,3.97461,-0.271973
563,-1.50598e-38,-0.393285,-0.190445,9.89199,-0.0804287,-0.413388,3.96411,3.97437,-0.267822
564,-1.50714e-38,-0.382756,-0.189944,9.91555,-0.125843,-0.254913,6.22192,3.9729,-0.267822
565,-1.50831e-38,-0.402362,-0.200759,9.89947,-0.234678,-0.291234,-1.5459,3.97559,-0.269043
566,-1.50948e-38,-0.368035,-0.199128,9.92054,-0.104877,-0.372751,1.21021,3.97412,-0.264893
567,-1.51065e-38,-0.382527,-0.186854,9.93217,-0.121437,-0.330552,-5.16162,3.97266,-0.266602
568,-1.51181e-38,-0.384923,-0.196896,9.86981,-0.190416,-0.317847,7.03198,3.97485,-0.267822
569,-1.51298e-38,-0.388836,-0.178807,9.91055,-0.067263,-0.284523,7.16333,3.97485,-0.26709
570,-1.51415e-38,-0.381933,-0.177211,9.87742,-0.187419,-0.35737,2.91431,3.97485,-0.268066
571,-1.51532e-38,-0.389909,-0.178807,9.90697,-0.180491,-0.297368,-4.14331,3.97632,-0.27124
572,-1.51649e-38,-0.362549,-0.196052,9.88029,-0.167453,-0.213764,-0.468506,3.97412,-0.272461
573,-1.51765e-38,-0.383006,-0.20347,9.8881,-0.192939,-0.394677,6.92822,3.97412,-0.267334
574,-1.51882e-38,-0.391246,-0.186489,9.90697,-0.167351,-0.284536,0.946777,3.9751,-0.269531
575,-1.51999e-38,-0.386862,-0.194078,9.88109,-0.11885,-0.355654,-4.84863,3.97388,-0.267334
576,-1.52116e-38,-0.369752,-0.18332,9.90829,-0.173562,-0.297023,2.81104,3.97363,-0.269287
577,-1.52232e-38,-0.373057,-0.18312,9.90659,-0.164213,-0.3065,3.646,3.97705,-0.26709
578,-1.52349e-38,-0.389751,-0.166682,9.89453,-0.111115,-0.4316,3.85938,3.97412,-0.272217
579,-1.52466e-38,-0.383056,-0.192948,9.87929,-0.225572,-0.362838,5.45386,3.97827,-0.270996
580,-1.52583e-38,-0.376747,-0.185187,9.92324,-0.108271,-0.354117,1.07275,3.979,-0.264404
581,-1.52699e-38,-0.377162,-0.184751,9.89215,-0.161715,-0.340759,1.62793,3.97559,-0.267578
582,-1.52816e-38,-0.396074,-0.193978,9.89074,-0.143158,-0.33693,-6.50415,3.97607,-0.26709
583,-1.52933e-38,-0.380681,-0.191946,9.89036,-0.184089,-0.372764,2.54443,3.97681,-0.268799
584,-1.5305e-38,-0.376819,-0.172848,9.9364,-0.176405,-0.461312,-2.17432,3.97461,-0.269531
585,-1.53167e-38,-0.37654,-0.179701,9.88685,-0.331602,-0.415693,-5.97778,3.97485,-0.265381
586,-1.53283e-38,-0.374015,-0.174594,9.87224,-0.223856,-0.391603,2.94092,3.97461,-0.267578
587,-1.534e-38,-0.387212,-0.194193,9.90898,-0.139559,-0.381127,7.24194,3.97461,-0.266357
588,-1.53517e-38,-0.381468,-0.221974,9.87175,-0.307409,-0.331717,-7.08008,3.97534,-0.267822
589,-1.53634e-38,-0.388314,-0.180888,9.85617,-0.11634,-0.425427,-1.10107,3.97632,-0.269043
590,-1.5375e-38,-0.393442,-0.19764,9.90555,-0.178378,-0.428219,-3.93091,3.97388,-0.267822
591,-1.53867e-38,-0.366075,-0.159602,9.87061,-0.203364,-0.334919,0.00439453,3.97363,-0.270508
592,-1.53984e-38,-0.379866,-0.170095,9.92033,-0.0400479,-0.367526,2.20996,3.97192,-0.266846
593,-1.54101e-38,-0.380681,-0.178986,9.90742,-0.0762792,-0.386621,3.30469,3.97705,-0.270508
594,-1.54217e-38,-0.385002,-0.176883,9.92227,-0.109245,-0.313185,3.49438,3.97241,-0.267578
595,-1.54334e-38,-0.402855,-0.185781,9.89702,-0.180158,-0.305078,-4.45557,3.97412,-0.268311
596,-1.54451e-38,-0.383757,-0.184272,9.90019,-0.181169,-0.362621,6.40259,3.97485,-0.268066
597,-1.54568e-38,-0.383829,-0.173421,9.90406,-0.131529,-0.28962,-7.47241,3.97461,-0.262939
598,-1.54685e-38,-0.401224,-0.18455,9.90258,-0.225418,-0.320703,-4.08813,3.97388,-0.269043
599,-1.54801e-38,-0.406031,-0.176647,9.88456,-0.188867,-0.219219,6.45605,3.97412,-0.265869
600,-1.54918e-38,-0.38586,-0.188499,9.91128,-0.265504,-0.227185,5.14185,3.97607,-0.266113
601,-1.55035e-38,-0.392984,-0.186053,9.90056,-0.185485,-0.412479,0.365967,3.97827,-0.269531
602,-1.55152e-38,-0.388786,-0.182762,9.8877,-0.215441,-0.424991,4.82837,3.97534,-0.267822
603,-1.55268e-38,-0.384658,-0.162949,9.87513,-0.111563,-0.349903,-4.82373,3.97485,-0.266113
604,-1.55385e-38,-0.377506,-0.201224,9.92192,-0.0828749,-0.351005,2.05054,3.97339,-0.267334
605,-1.55502e-38,-0.393328,-0.189958,9.89332,-0.145668,-0.322099,6.71582,3.97607,-0.268799
606,-1.55619e-38,-0.383199,-0.18754,9.90041,-0.232923,-0.302952,-7.13428,3.97681,-0.265625
607,-1.55735e-38,-0.39159,-0.174343,9.92657,-0.280463,-0.333305,-2.72803,3.97681,-0.269775
608,-1.55852e-38,-0.389401,-0.187497,9.90798,-0.185614,-0.337429,2.15552,3.97339,-0.269531
609,-1.55969e-38,-0.393249,-0.186925,9.88615,-0.269628,-0.337762,-3.50903,3.97266,-0.268799
610,-1.56086e-38,-0.392806,-0.194972,9.91169,-0.225841,-0.371867,-0.653564,3.9751,-0.270996
611,-1.56203e-38,-0.392956,-0.184114,9.91191,-0.111115,-0.365387,3.12061,3.97754,-0.26416
612,-1.56319e-38,-0.382563,-0.194436,9.90962,-0.168554,-0.274572,-3.30176,3.97437,-0.265381
613,-1.56436e-38,-0.388557,-0.176976,9.88265,-0.16169,-0.422673,6.71802,3.97437,-0.26709
614,-1.56553e-38,-0.390045,-0.199142,9.89151,-0.155325,-0.392589,-2.59717,3.97729,-0.267822
615,-1.5667e-38,-0.402519,-0.179315,9.87944,-0.280271,-0.339235,-6.68555,3.97461,-0.266602
616,-1.56786e-38,-0.388027,-0.190573,9.89349,-0.119657,-0.342885,-5.87207,3.97437,-0.266357
617,-1.56903e-38,-0.395581,-0.197204,9.89548,-0.306666,-0.450772,-5.76562,3.97314,-0.265869
618,-1.5702e-38,-0.380681,-0.182433,9.88799,-0.192248,-0.400312,5.35083,3.97656,-0.265869
619,-1.57137e-38,-0.369437,-0.17488,9.90797,-0.238648,-0.238059,-6.26587,3.97461,-0.264893
620,-1.57253e-38,-0.39076,-0.198291,9.88624,-0.18067,-0.3706,5.7749,3.97363,-0.268555
621,-1.5737e-38,-0.381762,-0.173757,9.89559,-0.178698,-0.316938,1.4187,3.9751,-0.264893
622,-1.57487e-38,-0.366433,-0.186467,9.88577,-0.15097,-0.304809,5.11938,3.97339,-0.269043
623,-1.57604e-38,-0.372785,-0.204621,9.90765,-0.10635,-0.380064,-0.260254,3.97534,-0.267334
624,-1.57721e-38,-0.37046,-0.18641,9.90245,-0.130005,-0.293168,5.40625,3.97461,-0.265869
625,-1.57837e-38,-0.385753,-0.18817,9.87909,-0.190045,-0.372034,0.1604,3.97485,-0.269043
626,-1.57954e-38,-0.378114,-0.191031,9.88067,-0.261585,-0.372597,-6.552,3.9729,-0.266846
627,-1.58071e-38,-0.389551,-0.194278,9.91948,-0.157028,-0.298034,6.35181,3.97363,-0.268066
628,-1.58188e-38,-0.399594,-0.19847,9.89593,-0.123973,-0.331243,7.16406,3.97437,-0.266846
629,-1.58304e-38,-0.409715,-0.171354,9.8766,-0.1913,-0.394959,3.25513,3.97485,-0.266602
630,-1.58421e-38,-0.385152,-0.184028,9.91963,-0.169246,-0.403309,2.9375,3.97705,-0.266602
631,-1.58538e-38,-0.387942,-0.188942,9.89035,-0.248343,-0.417294,0.898682,3.97168,-0.267334
632,-1.58655e-38,-0.386676,-0.19847,9.88651,-0.156465,-0.370138,-0.676758,3.97266,-0.26416
633,-1.58772e-38,-0.380109,-0.189901,9.87368,-0.185127,-0.390066,-4.24487,3.97339,-0.267334
634,-1.58888e-38,-0.390352,-0.207504,9.8847,-0.233884,-0.368153,6.74292,3.97534,-0.268066
635,-1.59005e-38,-0.393356,-0.196674,9.90885,-0.194271,-0.34519,-0.677246,3.97314,-0.266846
636,-1.59122e-38,-0.379816,-0.178049,9.90696,-0.159871,-0.298111,-3.6167,3.97437,-0.266357
637,-1.59239e-38,-0.370117,-0.193978,9.90639,-0.167363,-0.379962,0.186523,3.9751,-0.265625
638,-1.59355e-38,-0.379737,-0.192554,9.87377,-0.0538667,-0.402553,7.87158,3.97461,-0.265869
639,-1.59472e-38,-0.373672,-0.184365,9.90126,-0.245448,-0.303234,-0.836182,3.97437,-0.270508
640,-1.59589e-38,-0.39528,-0.198699,9.89621,-0.234204,-0.432151,2.46777,3.97534,-0.268799
641,-1.59706e-38,-0.384751,-0.190781,9.89056,-0.165148,-0.320421,-5.3457,3.9729,-0.268066
642,-1.59822e-38,-0.386354,-0.174043,9.88362,-0.218938,-0.234793,0.689941,3.97095,-0.266846
643,-1.59939e-38,-0.39601,-0.195194,9.87623,-0.220628,-0.308997,7.76978,3.97241,-0.265869
644,-1.60056e-38,-0.383836,-0.195208,9.89603,-0.133437,-0.439118,1.57739,3.97412,-0.269043
645,-1.60173e-38,-0.394179,-0.192154,9.88913,-0.205785,-0.288749,-5.1626,3.97339,-0.264893
646,-1.6029e-38,-0.385088,-0.188227,9.91458,-0.153865,-0.280399,-3.43311,3.97437,-0.265625
647,-1.60406e-38,-0.371097,-0.196381,9.85356,-0.0365131,-0.430409,-6.76685,3.97632,-0.267334
648,-1.60523e-38,-0.396589,-0.15885,9.88442,-0.18546,-0.359509,-2.14941,3.97583,-0.267578
649,-1.6064e-38,-0.381933,-0.180939,9.88541,-0.226366,-0.401132,-3.03955,3.97437,-0.265625
650,-1.60757e-38,-0.396976,-0.192533,9.89855,-0.21676,-0.338223,7.65942,3.97656,-0.266846
651,-1.60873e-38,-0.387491,-0.189887,9.88366,-0.272728,-0.383919,3.88452,3.9751,-0.268066
652,-1.6099e-38,-0.400745,-0.189014,9.90795,-0.153237,-0.361097,0.264648,3.9751,-0.268311
653,-1.61107e-38,-0.376304,-0.190094,9.91086,-0.248778,-0.358766,-2.2522,3.97412,-0.267578
654,-1.61224e-38,-0.368393,-0.18548,9.89605,-0.17109,-0.361045,2.20117,3.97852,-0.267334
655,-1.6134e-38,-0.397061,-0.182305,9.89525,-0.191735,-0.471699,-0.0473633,3.9729,-0.266846
656,-1.61457e-38,-0.377992,-0.184736,9.90196,-0.100907,-0.340426,6.92261,3.97852,-0.26709
657,-1.61574e-38,-0.376797,-0.184393,9.86897,-0.238699,-0.358548,7.79712,3.97144,-0.266357
658,-1.61691e-38,-0.379287,-0.180752,9.87649,-0.0956051,-0.352746,6.08838,3.97437,-0.26709
659,-1.61808e-38,-0.380274,-0.184715,9.9003,-0.126778,-0.388965,-3.56494,3.9751,-0.265869
660,-1.61924e-38,-0.379537,-0.190767,9.92586,-0.160883,-0.291592,-5.7937,3.97461,-0.270264
661,-1.62041e-38,-0.402583,-0.199121,9.91548,-0.126048,-0.321715,-1.70288,3.97534,-0.27002
662,-1.62158e-38,-0.396439,-0.171754,9.88285,-0.10174,-0.375428,0.029541,3.97461,-0.268799
663,-1.62275e-38,-0.394508,-0.181518,9.9028,-0.175137,-0.335867,-3.67285,3.97729,-0.270996
664,-1.62391e-38,-0.379387,-0.183442,9.90596,-0.157592,-0.435583,-1.05029,3.97778,-0.264893
665,-1.62508e-38,-0.380674,-0.175595,9.87871,-0.247011,-0.33351,-6.19141,3.97778,-0.266846
666,-1.62625e-38,-0.399551,-0.180867,9.8701,-0.175355,-0.349276,-0.911865,3.97217,-0.26416
667,-1.62742e-38,-0.379001,-0.185366,9.87853,-0.137011,-0.363697,-6.94824,3.97485,-0.265381
668,-1.62858e-38,-0.399908,-0.18709,9.90487,-0.0987813,-0.400056,3.04688,3.97363,-0.269043
669,-1.62975e-38,-0.389093,-0.193899,9.90442,-0.137305,-0.361839,6.71826,3.97412,-0.265381
670,-1.63092e-38,-0.388106,-0.175731,9.91027,-0.155671,-0.360584,-4.34985,3.97339,-0.27002
671,-1.63209e-38,-0.386482,-0.19817,9.91166,-0.104416,-0.314786,0.421875,3.97534,-0.266357
672,-1.63326e-38,-0.394315,-0.207647,9.86597,-0.085257,-0.313147,-7.13477,3.97705,-0.268311
673,-1.63442e-38,-0.380467,-0.20073,9.90964,-0.164495,-0.4316,-0.550781,3.97681,-0.27002
674,-1.63559e-38,-0.366433,-0.174508,9.88956,-0.0903414,-0.333882,-4.66748,3.97583,-0.264893
675,-1.63676e-38,-0.384666,-0.190731,9.88439,-0.181182,-0.308664,6.71704,3.97534,-0.27002
676,-1.63793e-38,-0.390123,-0.183113,9.90123,-0.270986,-0.304387,5.14624,3.9729,-0.267334
677,-1.63909e-38,-0.388879,-0.178085,9.90683,-0.184717,-0.471622,7.61353,3.97144,-0.266602
678,-1.64026e-38,-0.381182,-0.184858,9.91931,-0.196986,-0.408739,-4.40015,3.97217,-0.26709
679,-1.64143e-38,-0.382033,-0.188141,9.89,-0.225585,-0.190852,-2.17383,3.97437,-0.265869
680,-1.6426e-38,-0.390724,-0.181589,9.87577,-0.177596,-0.358177,-0.994385,3.9751,-0.27002
681,-1.64376e-38,-0.377177,-0.176554,9.91393,-0.149011,-0.327235,4.35498,3.97607,-0.267822
682,-1.64493e-38,-0.384079,-0.188549,9.90298,-0.148921,-0.315439,-2.09619,3.97485,-0.269043
683,-1.6461e-38,-0.417039,-0.18832,9.89678,-0.255707,-0.38844,3.28687,3.97095,-0.268311
684,-1.64727e-38,-0.384208,-0.194221,9.89009,-0.27876,-0.399685,-5.68896,3.97485,-0.27124
685,-1.64844e-38,-0.394937,-0.188041,9.91445,-0.239775,-0.326556,-1.49316,3.9751,-0.268555
686,-1.6496e-38,-0.373407,-0.192462,9.899,-0.169003,-0.320793,4.48804,3.97485,-0.269287
687,-1.65077e-38,-0.389015,-0.190852,9.90875,-0.15795,-0.361045,-4.19507,3.97534,-0.266602
688,-1.65194e-38,-0.378056,-0.202905,9.8807,-0.177186,-0.427873,5.19238,3.97754,-0.267334
689,-1.65311e-38,-0.382463,-0.189929,9.90313,-0.131375,-0.251096,-1.59888,3.97583,-0.267822
690,-1.65427e-38,-0.399522,-0.189436,9.87993,-0.178685,-0.388875,6.27295,3.97363,-0.266602
691,-1.65544e-38,-0.381769,-0.192097,9.90496,-0.212355,-0.46089,1.15796,3.97412,-0.264404
692,-1.65661e-38,-0.38752,-0.180302,9.89261,-0.155414,-0.337993,2.99316,3.97461,-0.269531
693,-1.65778e-38,-0.374988,-0.189407,9.89936,-0.227339,-0.326927,-2.56641,3.97388,-0.264893
694,-1.65894e-38,-0.39008,-0.20289,9.92163,-0.133514,-0.401465,4.46362,3.97363,-0.270996
695,-1.66011e-38,-0.381268,-0.188914,9.89966,-0.305642,-0.336712,0.267334,3.97314,-0.264893
696,-1.66128e-38,-0.377105,-0.181997,9.87587,-0.150727,-0.350057,-4.19482,3.97534,-0.268311
697,-1.66245e-38,-0.371969,-0.18513,9.91232,-0.260702,-0.377887,6.06079,3.97559,-0.266113
698,-1.66362e-38,-0.401611,-0.172383,9.90263,-0.121002,-0.300301,-1.69995,3.97314,-0.268311
699,-1.66478e-38,-0.396768,-0.184243,9.91142,-0.0970651,-0.388683,-2.35498,3.97266,-0.27002
700,-1.66595e-38,-0.398034,-0.189944,9.93154,-0.187509,-0.345702,1.68262,3.97388,-0.270752
701,-1.66712e-38,-0.411546,-0.187869,9.89544,-0.183564,-0.296293,-1.6731,3.97241,-0.267578
702,-1.66829e-38,-0.397162,-0.199257,9.91123,-0.108553,-0.352426,-4.79712,3.97461,-0.266602
703,-1.66945e-38,-0.384537,-0.179987,9.8764,-0.187138,-0.338287,7.52832,3.97656,-0.264893
704,-1.67062e-38,-0.401646,-0.193055,9.89326,-0.189225,-0.311687,5.6145,3.97583,-0.268066
705,-1.67179e-38,-0.365668,-0.188363,9.89031,-0.211996,-0.409508,3.2583,3.97241,-0.266846
706,-1.67296e-38,-0.380474,-0.194121,9.89258,-0.156529,-0.305194,4.61914,3.97485,-0.268555
707,-1.67412e-38,-0.386447,-0.19392,9.91847,-0.162394,-0.393307,-2.64551,3.97388,-0.267822
708,-1.67529e-38,-0.370596,-0.176847,9.87616,-0.109565,-0.381588,-3.35229,3.97314,-0.267334
709,-1.67646e-38,-0.396461,-0.199686,9.88763,-0.0643558,-0.380666,0.059082,3.97192,-0.270508
710,-1.67763e-38,-0.405201,-0.162033,9.91074,-0.191364,-0.32735,-4.4812,3.97363,-0.268311
711,-1.6788e-38,-0.391704,-0.174873,9.90637,-0.13523,-0.253081,-7.49512,3.97192,-0.269043
712,-1.67996e-38,-0.385896,-0.177641,9.91346,-0.115021,-0.314863,3.2605,3.97095,-0.266357
713,-1.68113e-38,-0.38777,-0.179186,9.90619,-0.213277,-0.29012,-0.416504,3.97437,-0.266602
714,-1.6823e-38,-0.408127,-0.195151,9.89745,-0.303132,-0.301544,2.62329,3.97656,-0.268555
715,-1.68347e-38,-0.383435,-0.1891,9.88391,-0.196961,-0.299597,4.6709,3.97534,-0.266846
716,-1.68463e-38,-0.382291,-0.183907,9.88584,-0.22228,-0.390848,1.55347,3.97266,-0.268555
717,-1.6858e-38,-0.396775,-0.187912,9.89181,-0.270781,-0.330462,6.19507,3.97314,-0.268799
718,-1.68697e-38,-0.391017,-0.181882,9.91375,-0.276121,-0.35363,-7.65649,3.97485,-0.267578
719,-1.68814e-38,-0.375088,-0.172863,9.90059,-0.112946,-0.322931,7.8186,3.97534,-0.269287
720,-1.68931e-38,-0.384723,-0.193813,9.89869,-0.104135,-0.380563,2.36426,3.97412,-0.26709
721,-1.69047e-38,-0.392398,-0.176561,9.91769,-0.211087,-0.458392,2.96436,3.97656,-0.266113
722,-1.69164e-38,-0.379172,-0.187247,9.89506,-0.0875751,-0.360572,-4.64014,3.97485,-0.263916
723,-1.69281e-38,-0.389694,-0.190888,9.86057,-0.177084,-0.296677,4.25513,3.97241,-0.269531
724,-1.69398e-38,-0.399443,-0.195995,9.90115,-0.213751,-0.362723,2.54565,3.97583,-0.267334
725,-1.69514e-38,-0.400101,-0.180788,9.86855,-0.149459,-0.494227,-6.44824,3.97339,-0.269775
726,-1.69631e-38,-0.394722,-0.175037,9.9235,-0.128417,-0.337685,-5.87036,3.9729,-0.269287
727,-1.69748e-38,-0.384523,-0.177813,9.89745,-0.230285,-0.347163,-3.25195,3.97656,-0.264893
728,-1.69865e-38,-0.382534,-0.176182,9.88279,-0.0836689,-0.374775,-1.46265,3.97192,-0.27002
729,-1.69981e-38,-0.380181,-0.18234,9.90278,-0.144938,-0.297548,-1.20264,3.97388,-0.268311
730,-1.70098e-38,-0.391575,-0.199271,9.89186,-0.0965785,-0.350313,6.82153,3.97534,-0.266602
731,-1.70215e-38,-0.389751,-0.19038,9.89752,-0.120156,-0.376427,3.96436,3.97437,-0.269775
732,-1.70332e-38,-0.382899,-0.18194,9.89016,-0.152136,-0.289146,5.1438,3.97485,-0.269043
733,-1.70449e-38,-0.388285,-0.181203,9.88124,-0.107951,-0.35979,-6.81177,3.97095,-0.26709
734,-1.70565e-38,-0.380338,-0.190137,9.91195,-0.181951,-0.446571,-6.76392,3.97461,-0.267822
735,-1.70682e-38,-0.395559,-0.17488,9.88171,-0.103546,-0.370881,6.03662,3.97412,-0.269531
736,-1.70799e-38,-0.397562,-0.194979,9.88324,-0.0594634,-0.40336,4.56738,3.97437,-0.266846
737,-1.70916e-38,-0.392326,-0.177376,9.89812,-0.163368,-0.279144,-6.89868,3.97681,-0.266113
738,-1.71032e-38,-0.394465,-0.193649,9.88689,-0.190672,-0.312468,-2.01489,3.97314,-0.27002
739,-1.71149e-38,-0.390767,-0.18714,9.90157,-0.196346,-0.257385,4.9834,3.97705,-0.270264
740,-1.71266e-38,-0.382734,-0.205279,9.92109,-0.179517,-0.26804,-5.0874,3.97607,-0.27002
741,-1.71383e-38,-0.375882,-0.170502,9.87763,-0.169413,-0.193285,0.970703,3.97681,-0.265381
742,-1.71499e-38,-0.381497,-0.188463,9.88113,-0.183065,-0.306705,7.8457,3.97437,-0.270508
743,-1.71616e-38,-0.392827,-0.164952,9.88025,-0.210267,-0.351965,-1.90845,3.97217,-0.267822
744,-1.71733e-38,-0.381611,-0.174322,9.90167,-0.18099,-0.397072,-4.7959,3.97388,-0.270752
745,-1.7185e-38,-0.372334,-0.175502,9.89217,-0.152443,-0.380666,-4.71655,3.97314,-0.267578
746,-1.71967e-38,-0.38453,-0.1997,9.88298,-0.210152,-0.373238,-3.08862,3.97192,-0.263916
747,-1.72083e-38,-0.375188,-0.188134,9.88109,-0.197806,-0.372008,2.99146,3.97607,-0.270508
748,-1.722e-38,-0.376096,-0.192261,9.90489,-0.166966,-0.403616,4.51221,3.97607,-0.267822
749,-1.72317e-38,-0.395853,-0.193549,9.90931,-0.0930949,-0.321062,-2.51587,3.9751,-0.266602
750,-1.72434e-38,-0.395638,-0.180631,9.90777,-0.164968,-0.383535,-0.101807,3.97437,-0.265137
751,-1.7255e-38,-0.385717,-0.193062,9.90535,-0.174638,-0.450068,3.23022,3.97388,-0.265381
752,-1.72667e-38,-0.392548,-0.17739,9.89865,-0.149126,-0.272202,7.53418,3.97241,-0.266602
753,-1.72784e-38,-0.390109,-0.197783,9.87799,-0.210511,-0.268578,-1.83179,3.97363,-0.267334
754,-1.72901e-38,-0.384158,-0.178971,9.90936,-0.213994,-0.225777,-5.92432,3.97412,-0.26416
755,-1.73017e-38,-0.391697,-0.188828,9.8838,-0.217503,-0.334176,-2.93506,3.97461,-0.267334
756,-1.73134e-38,-0.377649,-0.175631,9.8561,-0.117211,-0.376657,-0.127441,3.97388,-0.268311
757,-1.73251e-38,-0.369273,-0.168092,9.88898,-0.0962327,-0.370279,-5.89966,3.97534,-0.269043
758,-1.73368e-38,-0.390946,-0.174007,9.8622,-0.081671,-0.387326,-4.14087,3.97412,-0.267822
759,-1.73485e-38,-0.366762,-0.190917,9.90864,-0.224983,-0.334868,2.62793,3.97339,-0.266602
760,-1.73601e-38,-0.404522,-0.182154,9.89378,-0.0902646,-0.345715,-5.58374,3.97437,-0.267334
761,-1.73718e-38,-0.388256,-0.162241,9.89914,-0.0462849,-0.368102,2.3916,3.97363,-0.268311
762,-1.73835e-38,-0.385603,-0.191517,9.86544,-0.246537,-0.37489,6.84912,3.97461,-0.269287
763,-1.73952e-38,-0.38365,-0.184829,9.87838,-0.237162,-0.280117,4.17383,3.97437,-0.265869
764,-1.74068e-38,-0.402369,-0.184908,9.90845,-0.171052,-0.342616,3.62036,3.97632,-0.264648
765,-1.74185e-38,-0.376054,-0.2047,9.8814,-0.0768299,-0.373187,-4.03711,3.9751,-0.264893
766,-1.74302e-38,-0.381239,-0.194915,9.89099,-0.171244,-0.314479,-7.60474,3.97559,-0.269531
767,-1.74419e-38,-0.379179,-0.170295,9.941,-0.2403,-0.335201,-2.51221,3.97241,-0.26416
768,-1.74535e-38,-0.383822,-0.178192,9.88604,-0.171218,-0.379949,1.31421,3.97485,-0.267334
769,-1.74652e-38,-0.395581,-0.187848,9.88814,-0.120092,-0.358945,-1.15234,3.97534,-0.265625
770,-1.74769e-38,-0.371383,-0.191188,9.89086,-0.0600782,-0.300647,-7.448,3.97583,-0.268311
771,-1.74886e-38,-0.390281,-0.179951,9.92486,-0.126778,-0.40605,6.6123,3.9751,-0.268555
772,-1.75003e-38,-0.395545,-0.177154,9.90865,-0.248932,-0.37603,7.24365,3.97363,-0.266846
773,-1.75119e-38,-0.396675,-0.190187,9.91028,-0.0642277,-0.294833,5.56445,3.97388,-0.270752
774,-1.75236e-38,-0.392448,-0.190001,9.868,-0.248458,-0.355013,-1.67578,3.97461,-0.267822
775,-1.75353e-38,-0.391189,-0.179815,9.89755,-0.225572,-0.38041,1.31787,3.97217,-0.263428
776,-1.7547e-38,-0.388664,-0.187462,9.88082,-0.138509,-0.333715,-0.000732422,3.97729,-0.269043
777,-1.75586e-38,-0.376025,-0.176933,9.91727,-0.123806,-0.287917,-1.09912,3.97485,-0.264893
778,-1.75703e-38,-0.391375,-0.176318,9.89223,-0.232462,-0.408662,-6.71191,3.97461,-0.263672
779,-1.7582e-38,-0.367134,-0.173972,9.87491,-0.143273,-0.360712,-3.51294,3.97534,-0.267822
780,-1.75937e-38,-0.382455,-0.201904,9.89691,-0.171039,-0.325698,1.78662,3.97461,-0.266846
781,-1.76053e-38,-0.398106,-0.192977,9.92523,-0.244552,-0.336046,6.97803,3.97632,-0.268066
782,-1.7617e-38,-0.377076,-0.184601,9.90265,-0.166249,-0.425491,-1.4165,3.97705,-0.266846
783,-1.76287e-38,-0.39739,-0.191296,9.91067,-0.233166,-0.398865,4.48804,3.9751,-0.268555
784,-1.76404e-38,-0.363994,-0.184379,9.87658,-0.110449,-0.388542,6.53613,3.97314,-0.265869
785,-1.76521e-38,-0.407798,-0.183928,9.87648,-0.19755,-0.408765,-4.55835,3.97266,-0.266357
786,-1.76637e-38,-0.412004,-0.18184,9.88774,-0.198818,-0.308498,7.63794,3.9729,-0.273682
787,-1.76754e-38,-0.399901,-0.194965,9.89984,-0.145988,-0.291938,-5.02905,3.97144,-0.267822
788,-1.76871e-38,-0.392591,-0.192819,9.9253,-0.0942604,-0.35299,-4.48511,3.97656,-0.267578
789,-1.76988e-38,-0.378571,-0.18729,9.92126,-0.167133,-0.303298,-7.15894,3.97559,-0.264893
790,-1.77104e-38,-0.383664,-0.187819,9.87931,-0.0990759,-0.328041,2.34131,3.97168,-0.265137
791,-1.77221e-38,-0.403628,-0.168035,9.85674,-0.327222,-0.369844,-5.78931,3.97144,-0.266846
792,-1.77338e-38,-0.394129,-0.183392,9.90006,-0.21133,-0.318167,-4.61377,3.97485,-0.269287
793,-1.77455e-38,-0.376375,-0.201345,9.93015,-0.106081,-0.346112,6.5105,3.9729,-0.268555
794,-1.77572e-38,-0.364058,-0.189786,9.90981,-0.179978,-0.363837,-1.83691,3.97729,-0.264893
795,-1.77688e-38,-0.379852,-0.174808,9.91265,-0.209614,-0.249316,7.09082,3.97021,-0.269043
796,-1.77805e-38,-0.400359,-0.173735,9.897,-0.16598,-0.310803,3.8606,3.97314,-0.266846
797,-1.77922e-38,-0.379358,-0.191925,9.91779,-0.228415,-0.325109,-1.41357,3.97461,-0.266602
798,-1.78039e-38,-0.399458,-0.198069,9.88913,-0.201981,-0.393473,0.373535,3.97217,-0.268555
799,-1.78155e-38,-0.390159,-0.181389,9.90936,-0.238174,-0.377234,6.29712,3.97534,-0.267822
800,-1.78272e-38,-0.363829,-0.177598,9.8938,-0.100882,-0.353515,6.98047,3.97412,-0.26709
801,-1.78389e-38,-0.396196,-0.187898,9.89486,-0.1981,-0.336981,-3.74805,3.97437,-0.266357
802,-1.78506e-38,-0.391661,-0.175974,9.90783,-0.23455,-0.384444,-5.84863,3.97656,-0.270996
803,-1.78622e-38,-0.383986,-0.19322,9.87051,-0.283601,-0.28483,-4.11426,3.97388,-0.268311
804,-1.78739e-38,-0.408985,-0.186903,9.90466,-0.145822,-0.521147,0.292725,3.97363,-0.271484
805,-1.78856e-38,-0.397369,-0.201517,9.90392,-0.188495,-0.394587,-7.78467,3.97266,-0.269531
806,-1.78973e-38,-0.395559,-0.199686,9.88378,-0.199522,-0.397494,-0.572998,3.97363,-0.265869
807,-1.7909e-38,-0.384136,-0.183442,9.91124,-0.178762,-0.355244,-6.55615,3.97583,-0.268555
808,-1.79206e-38,-0.373529,-0.199615,9.89765,-0.179223,-0.383061,-1.854,3.97046,-0.265381
809,-1.79323e-38,-0.360096,-0.170788,9.93082,-0.269526,-0.31868,7.40063,3.97388,-0.268311
810,-1.7944e-38,-0.403485,-0.1738,9.91051,-0.258435,-0.4019,-4.92798,3.97461,-0.267578
811,-1.79557e-38,-0.390452,-0.184765,9.89146,-0.244846,-0.31193,-5.26733,3.97314,-0.269775
812,-1.79673e-38,-0.371118,-0.184172,9.89807,-0.2137,-0.380602,-7.23779,3.97534,-0.266602
813,-1.7979e-38,-0.381797,-0.184643,9.89669,-0.209601,-0.367744,2.10034,3.97534,-0.266846
814,-1.79907e-38,-0.377363,-0.204428,9.92359,-0.149728,-0.334996,5.51343,3.9729,-0.267578
815,-1.80024e-38,-0.396368,-0.199242,9.88418,-0.0986532,-0.343064,-7.92065,3.97632,-0.269287
816,-1.8014e-38,-0.367105,-0.184479,9.85956,-0.254695,-0.399006,6.0354,3.9751,-0.26709
817,-1.80257e-38,-0.38802,-0.189722,9.89331,-0.0611028,-0.420701,-7.70825,3.97437,-0.269043
818,-1.80374e-38,-0.411954,-0.185831,9.87058,-0.118773,-0.460698,-2.69702,3.97339,-0.267822
819,-1.80491e-38,-0.382877,-0.196453,9.92054,-0.30212,-0.389618,7.58667,3.97192,-0.269531
820,-1.80608e-38,-0.384916,-0.18121,9.89536,-0.282999,-0.38648,-1.62158,3.97314,-0.263428
821,-1.80724e-38,-0.378593,-0.187626,9.87851,-0.163022,-0.345011,6.82715,3.97119,-0.265137
822,-1.80841e-38,-0.381919,-0.180123,9.89352,-0.168875,-0.442127,0.739746,3.9729,-0.266602
823,-1.80958e-38,-0.392934,-0.190101,9.91394,-0.225392,-0.250136,1.42407,3.97119,-0.265381
824,-1.81075e-38,-0.391117,-0.180602,9.87379,-0.2455,-0.329386,-1.10107,3.97632,-0.269043
825,-1.81191e-38,-0.404229,-0.168385,9.90398,-0.235023,-0.437068,-6.45215,3.97656,-0.267822
826,-1.81308e-38,-0.38576,-0.169122,9.89044,-0.0927747,-0.348354,2.88647,3.97583,-0.268555
827,-1.81425e-38,-0.386919,-0.205952,9.88964,-0.129403,-0.319768,-0.75415,3.97192,-0.267822
828,-1.81542e-38,-0.390288,-0.179529,9.88494,-0.186792,-0.368474,5.72363,3.97266,-0.268066
829,-1.81658e-38,-0.363579,-0.189786,9.92398,-0.208756,-0.298278,-3.64209,3.97388,-0.26709
830,-1.81775e-38,-0.387019,-0.182519,9.90498,-0.222793,-0.370151,-2.96216,3.97534,-0.265869
831,-1.81892e-38,-0.391783,-0.189143,9.89038,-0.223266,-0.272676,7.71509,3.97412,-0.266602
832,-1.82009e-38,-0.368865,-0.1891,9.89682,-0.164443,-0.415027,-3.85205,3.97412,-0.266357
833,-1.82126e-38,-0.370911,-0.209371,9.90379,-0.128878,-0.32954,6.6106,3.97632,-0.27124
834,-1.82242e-38,-0.387598,-0.199571,9.90291,-0.189046,-0.271652,1.26318,3.97363,-0.269043
835,-1.82359e-38,-0.391125,-0.175137,9.90183,-0.245218,-0.358535,-2.24731,3.97021,-0.263428
836,-1.82476e-38,-0.403148,-0.180745,9.88758,-0.17109,-0.292553,5.14624,3.97314,-0.267578
837,-1.82593e-38,-0.40136,-0.171912,9.88959,-0.205503,-0.30878,2.88721,3.9751,-0.263916
838,-1.82709e-38,-0.386954,-0.172791,9.91468,-0.0569148,-0.351863,3.021,3.97339,-0.265137
839,-1.82826e-38,-0.398707,-0.185359,9.88922,-0.253069,-0.303529,6.79663,3.97461,-0.26416
840,-1.82943e-38,-0.379558,-0.186711,9.8976,-0.211778,-0.301633,-0.862549,3.97461,-0.269043
841,-1.8306e-38,-0.393857,-0.181575,9.92401,-0.190173,-0.330744,-0.78833,3.97803,-0.269043
842,-1.83176e-38,-0.394887,-0.178928,9.88199,-0.230746,-0.375697,-6.65845,3.97412,-0.266357
843,-1.83293e-38,-0.376669,-0.189486,9.89752,-0.058631,-0.364593,-7.20703,3.97217,-0.268066
844,-1.8341e-38,-0.364681,-0.176539,9.90471,-0.242362,-0.349122,3.86328,3.97119,-0.264404
845,-1.83527e-38,-0.379895,-0.194843,9.9031,-0.17287,-0.339312,2.54565,3.97559,-0.266602
846,-1.83644e-38,-0.378521,-0.18769,9.89959,-0.225533,-0.421457,-1.06958,3.97217,-0.268066
847,-1.8376e-38,-0.380574,-0.163206,9.88383,-0.161715,-0.267425,7.19653,3.96973,-0.263916
848,-1.83877e-38,-0.383063,-0.176289,9.9038,-0.325826,-0.384816,-5.92285,3.97314,-0.26709
849,-1.83994e-38,-0.374022,-0.194643,9.90486,-0.0883563,-0.312839,-4.66138,3.97119,-0.264893
850,-1.84111e-38,-0.379873,-0.193406,9.88499,-0.2111,-0.303746,-6.60864,3.97583,-0.268066
851,-1.84227e-38,-0.394801,-0.202819,9.90375,-0.274751,-0.377643,-5.40039,3.97485,-0.265137
852,-1.84344e-38,-0.393106,-0.17591,9.92272,-0.183411,-0.379974,-3.61304,3.97168,-0.265381
853,-1.84461e-38,-0.383714,-0.176525,9.87469,-0.0660079,-0.312519,0.23877,3.9751,-0.269043
854,-1.84578e-38,-0.378636,-0.180845,9.86891,-0.140827,-0.359265,-0.756592,3.97388,-0.263428
855,-1.84694e-38,-0.386175,-0.177119,9.92435,-0.236086,-0.305885,-1.28052,3.97314,-0.26709
856,-1.84811e-38,-0.381204,-0.184758,9.88549,-0.229785,-0.326761,7.29395,3.9751,-0.268311
857,-1.84928e-38,-0.385216,-0.188749,9.92226,-0.175317,-0.455716,-1.36133,3.97485,-0.265625
858,-1.85045e-38,-0.406374,-0.191918,9.8608,-0.102547,-0.347137,-3.87744,3.97339,-0.266602
859,-1.85162e-38,-0.402641,-0.193134,9.89547,-0.106863,-0.274559,-7.94336,3.97363,-0.262451
860,-1.85278e-38,-0.400523,-0.176518,9.87933,-0.171206,-0.336878,-6.47998,3.97754,-0.265137
861,-1.85395e-38,-0.395788,-0.190638,9.89715,-0.280425,-0.334957,-2.33423,3.97632,-0.266357
862,-1.85512e-38,-0.391547,-0.201488,9.9334,-0.129672,-0.412146,-4.87256,3.97217,-0.268066
863,-1.85629e-38,-0.369409,-0.15787,9.89695,-0.0933255,-0.377464,-4.87427,3.97339,-0.268066
864,-1.85745e-38,-0.358901,-0.183098,9.87391,-0.0704263,-0.368935,3.52051,3.97241,-0.268799
865,-1.85862e-38,-0.385259,-0.192232,9.884,-0.132003,-0.300545,4.5686,3.97339,-0.27002
866,-1.85979e-38,-0.393707,-0.208077,9.90416,-0.132182,-0.38502,-7.49951,3.9751,-0.265381
867,-1.86096e-38,-0.391218,-0.189629,9.88624,-0.186151,-0.306641,-6.60596,3.97412,-0.264648
868,-1.86212e-38,-0.392612,-0.200594,9.88238,-0.133489,-0.403898,-6.13867,3.97754,-0.269775
869,-1.86329e-38,-0.390395,-0.195787,9.90261,-0.110167,-0.275148,-3.4082,3.97583,-0.269775
870,-1.86446e-38,-0.390195,-0.188699,9.91566,-0.314299,-0.387223,-7.60205,3.97363,-0.26709
871,-1.86563e-38,-0.384229,-0.178063,9.87721,-0.316874,-0.319871,-6.79028,3.97437,-0.265381
872,-1.8668e-38,-0.401353,-0.183928,9.91634,-0.177046,-0.266798,2.38818,3.97583,-0.267578
873,-1.86796e-38,-0.375431,-0.18415,9.90792,-0.239711,-0.354078,5.77222,3.97559,-0.265381
874,-1.86913e-38,-0.386561,-0.191403,9.88075,-0.0790327,-0.370753,7.34717,3.97437,-0.26416
875,-1.8703e-38,-0.396589,-0.182076,9.86313,-0.0889454,-0.293911,1.99854,3.97314,-0.26709
876,-1.87147e-38,-0.387148,-0.180388,9.89214,-0.340554,-0.265479,-6.92163,3.97461,-0.267334
877,-1.87263e-38,-0.398363,-0.189779,9.87224,-0.23113,-0.311354,7.34839,3.97388,-0.266113
878,-1.8738e-38,-0.397505,-0.181232,9.89262,-0.198626,-0.294935,-2.25513,3.97607,-0.267822
879,-1.87497e-38,-0.396618,-0.187676,9.92361,-0.225623,-0.336046,-3.56177,3.97266,-0.272949
880,-1.87614e-38,-0.378092,-0.193835,9.89336,-0.160204,-0.269244,0.00341797,3.97437,-0.266846
881,-1.87731e-38,-0.391632,-0.184221,9.8814,-0.176777,-0.346497,4.88379,3.97314,-0.265137
882,-1.87847e-38,-0.387434,-0.183055,9.87762,-0.160921,-0.38082,-4.19263,3.97363,-0.268066
883,-1.87964e-38,-0.397598,-0.198642,9.89786,-0.103161,-0.251263,-2.1499,3.97607,-0.268311
884,-1.88081e-38,-0.390023,-0.191925,9.87206,-0.163175,-0.278542,6.77197,3.97339,-0.266113
885,-1.88198e-38,-0.392619,-0.184829,9.90356,-0.184307,-0.47029,-4.35254,3.97583,-0.264893
886,-1.88314e-38,-0.386075,-0.199185,9.91764,-0.206041,-0.385417,7.91992,3.97778,-0.266602
887,-1.88431e-38,-0.40121,-0.174336,9.89698,-0.234114,-0.360008,-1.91504,3.97705,-0.26709
888,-1.88548e-38,-0.402941,-0.178034,9.90066,-0.156221,-0.271613,-2.59497,3.97534,-0.26709
889,-1.88665e-38,-0.394787,-0.201767,9.90706,-0.125792,-0.392513,-4.32031,3.97119,-0.269531
890,-1.88781e-38,-0.398878,-0.184536,9.90956,-0.166275,-0.340861,-3.66748,3.97339,-0.266357
891,-1.88898e-38,-0.411474,-0.186467,9.91378,-0.213303,-0.381076,5.14771,3.97192,-0.269043
892,-1.89015e-38,-0.405881,-0.190495,9.8768,-0.062947,-0.418344,3.15063,3.97461,-0.266357
893,-1.89132e-38,-0.397698,-0.208856,9.90167,-0.228108,-0.435455,-6.45068,3.97534,-0.267578
894,-1.89249e-38,-0.392047,-0.193556,9.91838,-0.216953,-0.392538,-6.74146,3.97705,-0.267578
895,-1.89365e-38,-0.388414,-0.192061,9.89997,-0.196167,-0.339171,-6.39771,3.9751,-0.264893
896,-1.89482e-38,-0.388593,-0.186768,9.9075,-0.151316,-0.343833,-2.72412,3.97388,-0.267578
897,-1.89599e-38,-0.401711,-0.191489,9.87132,-0.145847,-0.304374,-2.85352,3.97266,-0.264893
898,-1.89716e-38,-0.378164,-0.182862,9.89989,-0.112165,-0.383676,2.96558,3.97559,-0.268066
899,-1.89832e-38,-0.389022,-0.191997,9.88549,-0.0862687,-0.339337,0.369873,3.97485,-0.269287
900,-1.89949e-38,-0.37586,-0.186961,9.90158,-0.19381,-0.3748,-7.23438,3.97314,-0.268066
901,-1.90066e-38,-0.381225,-0.191989,9.9109,-0.195526,-0.3404,-7.13062,3.97388,-0.266602
902,-1.90183e-38,-0.394472,-0.193556,9.90048,-0.163483,-0.325416,6.87354,3.97559,-0.266357
903,-1.90299e-38,-0.386482,-0.188299,9.84713,-0.154262,-0.29076,-0.310059,3.97314,-0.268555
904,-1.90416e-38,-0.412304,-0.199772,9.87916,0.0726932,-0.379488,-1.25488,3.97363,-0.269775
905,-1.90533e-38,-0.397312,-0.177748,9.8773,-0.0635617,-0.409559,4.35938,3.9729,-0.267578
906,-1.9065e-38,-0.389859,-0.182676,9.8824,-0.224317,-0.314504,0.839355,3.97681,-0.265625
907,-1.90767e-38,-0.392748,-0.183714,9.85502,-0.191915,-0.329668,-6.96924,3.97095,-0.268311
908,-1.90883e-38,-0.38581,-0.165259,9.89009,-0.143581,-0.408457,0.739014,3.97363,-0.26709
909,-1.91e-38,-0.381089,-0.182519,9.87846,-0.123883,-0.345882,-2.146,3.97339,-0.265869
910,-1.91117e-38,-0.385102,-0.187476,9.87854,-0.214532,-0.342629,-5.2959,3.9751,-0.268555
911,-1.91234e-38,-0.394959,-0.19543,9.88247,-0.169861,-0.436326,3.88574,3.97437,-0.268311
912,-1.9135e-38,-0.385073,-0.18214,9.87695,-0.115302,-0.389605,-4.2981,3.97412,-0.267334
913,-1.91467e-38,-0.414557,-0.168671,9.9025,-0.193631,-0.360354,7.66846,3.96973,-0.26709
914,-1.91584e-38,-0.39214,-0.172484,9.90695,-0.0402784,-0.291836,-3.03882,3.97388,-0.265381
915,-1.91701e-38,-0.385917,-0.176754,9.88825,-0.165033,-0.327043,-7.99878,3.97583,-0.269531
916,-1.91817e-38,-0.389751,-0.179901,9.88654,-0.171782,-0.30933,-1.35986,3.97363,-0.268799
917,-1.91934e-38,-0.397784,-0.192075,9.90494,-0.0788534,-0.329437,2.99585,3.97266,-0.265381
918,-1.92051e-38,-0.396568,-0.177533,9.91081,-0.119068,-0.508148,-0.20752,3.9751,-0.263672
919,-1.92168e-38,-0.37968,-0.172269,9.88278,-0.199253,-0.356909,3.14966,3.9751,-0.267822
920,-1.92285e-38,-0.3941,-0.171875,9.8798,-0.242106,-0.438131,3.22607,3.97705,-0.269043
921,-1.92401e-38,-0.3839,-0.194164,9.88245,-0.102995,-0.323405,5.24878,3.97485,-0.263916
922,-1.92518e-38,-0.380617,-0.186045,9.91373,-0.107516,-0.36353,0.313965,3.97754,-0.268066
923,-1.92635e-38,-0.376919,-0.186467,9.90443,-0.194976,-0.335521,6.79688,3.97412,-0.268311
924,-1.92752e-38,-0.382813,-0.192376,9.86974,-0.148857,-0.333459,0.47876,3.97192,-0.269287
925,-1.92868e-38,-0.369266,-0.176611,9.89526,-0.241145,-0.382177,5.46167,3.97241,-0.266113
926,-1.92985e-38,-0.383843,-0.174172,9.88137,-0.269808,-0.335713,0.424561,3.97314,-0.268311
927,-1.93102e-38,-0.379623,-0.192233,9.90273,-0.281872,-0.354975,-7.86548,3.97437,-0.26709
928,-1.93219e-38,-0.377155,-0.181081,9.86813,-0.267528,-0.298572,2.10132,3.97437,-0.264893
929,-1.93335e-38,-0.383457,-0.199593,9.90461,-0.254798,-0.409943,-2.88257,3.97461,-0.269043
930,-1.93452e-38,-0.390366,-0.185487,9.89436,-0.142428,-0.272215,-1.62207,3.97363,-0.265869
931,-1.93569e-38,-0.387233,-0.189665,9.88863,-0.219578,-0.372982,6.45679,3.97388,-0.266357
932,-1.93686e-38,-0.390002,-0.1947,9.87582,-0.147602,-0.42339,6.82275,3.97437,-0.265625
933,-1.93803e-38,-0.399908,-0.17503,9.89888,-0.152097,-0.464412,-1.54492,3.97485,-0.265869
934,-1.93919e-38,-0.401224,-0.185924,9.89502,-0.150791,-0.413721,-2.95654,3.97119,-0.268555
935,-1.94036e-38,-0.401832,-0.198463,9.87459,-0.13646,-0.343577,0.685547,3.97412,-0.265625
936,-1.94153e-38,-0.386296,-0.185051,9.90913,-0.188713,-0.420803,2.30908,3.97632,-0.266357
937,-1.9427e-38,-0.390409,-0.184007,9.88556,-0.245448,-0.320447,4.14648,3.97534,-0.265137
938,-1.94386e-38,-0.405938,-0.179837,9.88642,-0.268873,-0.343922,-2.95874,3.9729,-0.267334
939,-1.94503e-38,-0.383736,-0.187712,9.8999,-0.192312,-0.340618,-5.6145,3.97803,-0.270508
940,-1.9462e-38,-0.398335,-0.178027,9.90087,-0.16525,-0.391347,-0.727295,3.97144,-0.266846
941,-1.94737e-38,-0.388156,-0.184422,9.85444,-0.310854,-0.264441,-2.27539,3.97192,-0.268799
942,-1.94853e-38,-0.383786,-0.188434,9.90916,-0.131286,-0.342526,-1.93726,3.97412,-0.269531
943,-1.9497e-38,-0.378056,-0.197697,9.85917,-0.198779,-0.249239,1.94653,3.9729,-0.267334
944,-1.95087e-38,-0.38556,-0.188027,9.89283,-0.260484,-0.290734,1.5249,3.97412,-0.269043
945,-1.95204e-38,-0.385781,-0.180817,9.89308,-0.116481,-0.384969,-2.82983,3.97437,-0.266357
946,-1.95321e-38,-0.391733,-0.200444,9.90201,-0.180106,-0.394395,1.73486,3.97412,-0.269043
947,-1.95437e-38,-0.374108,-0.180781,9.88163,-0.115533,-0.37439,1.62646,3.97681,-0.266846
948,-1.95554e-38,-0.407462,-0.179443,9.90525,-0.269987,-0.437658,1.73608,3.97314,-0.266602
949,-1.95671e-38,-0.394193,-0.168764,9.8995,-0.194053,-0.466589,-0.917725,3.97632,-0.271484
950,-1.95788e-38,-0.384494,-0.194736,9.9057,-0.104813,-0.4118,-1.54272,3.97314,-0.265381
951,-1.95904e-38,-0.375596,-0.170445,9.91703,-0.215493,-0.24418,7.31909,3.97607,-0.268066
952,-1.96021e-38,-0.381082,-0.189836,9.9021,-0.248727,-0.378463,-1.09644,3.9729,-0.264404
953,-1.96138e-38,-0.386819,-0.181568,9.89714,-0.226468,-0.371419,-0.260254,3.97534,-0.267822
954,-1.96255e-38,-0.3788,-0.17008,9.89714,-0.242285,-0.349737,-4.00928,3.97388,-0.26709
955,-1.96372e-38,-0.386947,-0.170295,9.87371,-0.113727,-0.332652,1.81274,3.97461,-0.264893
956,-1.96488e-38,-0.389286,-0.196553,9.90431,-0.195872,-0.224329,-6.47729,3.97583,-0.267578
957,-1.96605e-38,-0.384379,-0.18405,9.8806,-0.203095,-0.368435,-7.26392,3.97559,-0.267822
958,-1.96722e-38,-0.388078,-0.172176,9.86833,-0.193746,-0.350992,-2.17505,3.9751,-0.269531
959,-1.96839e-38,-0.386361,-0.17513,9.90122,-0.134462,-0.332101,-1.35889,3.97314,-0.265869
960,-1.96955e-38,-0.385817,-0.188463,9.91001,-0.198113,-0.320831,3.88501,3.97485,-0.270508
961,-1.97072e-38,-0.393084,-0.193148,9.91943,-0.105262,-0.328439,-5.1377,3.97437,-0.26709
962,-1.97189e-38,-0.386332,-0.195888,9.90624,-0.181899,-0.389964,7.34619,3.97559,-0.264893
963,-1.97306e-38,-0.371297,-0.181425,9.88766,-0.151905,-0.359329,-5.19092,3.97485,-0.268066
964,-1.97422e-38,-0.391511,-0.181704,9.88313,-0.155683,-0.408496,4.6709,3.97534,-0.269775
965,-1.97539e-38,-0.373321,-0.170316,9.89917,-0.210523,-0.381089,-2.70044,3.97583,-0.265625
966,-1.97656e-38,-0.385739,-0.203684,9.90068,-0.115328,-0.424518,-5.24194,3.97388,-0.264648
967,-1.97773e-38,-0.383049,-0.189129,9.89368,-0.169541,-0.414643,-2.38184,3.9729,-0.266357
968,-1.9789e-38,-0.382241,-0.193441,9.9119,-0.172999,-0.253683,-3.11816,3.97437,-0.269043
969,-1.98006e-38,-0.375667,-0.175931,9.90296,-0.193452,-0.371778,-7.60229,3.97363,-0.268311
970,-1.98123e-38,-0.384787,-0.191381,9.91033,-0.230618,-0.408406,-1.46533,3.97412,-0.268066
971,-1.9824e-38,-0.392312,-0.189894,9.89244,-0.261406,-0.226391,-5.39966,3.97412,-0.265625
972,-1.98357e-38,-0.394086,-0.189736,9.88706,-0.188252,-0.25385,-7.28735,3.97388,-0.268311
973,-1.98473e-38,-0.393628,-0.195995,9.90888,-0.120553,-0.36563,-0.837891,3.97559,-0.27002
974,-1.9859e-38,-0.371369,-0.1839,9.85871,-0.187765,-0.44401,-7.86792,3.97607,-0.267822
975,-1.98707e-38,-0.377069,-0.163106,9.88348,-0.0424812,-0.309279,-3.40698,3.97461,-0.269043
976,-1.98824e-38,-0.392734,-0.172391,9.92616,-0.167223,-0.343986,5.56055,3.97681,-0.263916
977,-1.9894e-38,-0.399036,-0.181975,9.89872,-0.176047,-0.260394,-2.88354,3.97534,-0.268799
978,-1.99057e-38,-0.393793,-0.178785,9.87476,-0.129275,-0.291516,6.53589,3.97339,-0.265869
979,-1.99174e-38,-0.372692,-0.197984,9.90624,-0.18578,-0.406575,-1.80957,3.97656,-0.264893
980,-1.99291e-38,-0.388943,-0.187076,9.86887,-0.133911,-0.332524,-1.80591,3.97388,-0.269531
981,-1.99408e-38,-0.397748,-0.177147,9.90813,-0.18003,-0.37147,-2.78247,3.97803,-0.264404
982,-1.99524e-38,-0.398592,-0.173313,9.90466,-0.102803,-0.422033,1.0542,3.97314,-0.273926
983,-1.99641e-38,-0.382656,-0.189593,9.93099,-0.218733,-0.336584,3.36206,3.97339,-0.263428
984,-1.99758e-38,-0.374144,-0.182834,9.88496,-0.136537,-0.392884,0.109863,3.97314,-0.264404
985,-1.99875e-38,-0.37385,-0.197976,9.89373,-0.173946,-0.374275,-1.41504,3.97559,-0.26709
986,-1.99991e-38,-0.387162,-0.196067,9.9073,-0.171039,-0.299546,6.34644,3.97754,-0.266357
987,-2.00108e-38,-0.387791,-0.190409,9.90387,-0.126342,-0.37334,2.04761,3.97559,-0.266602
988,-2.00225e-38,-0.397147,-0.190459,9.89335,-0.159794,-0.284946,-3.19824,3.97559,-0.266357
989,-2.00342e-38,-0.376819,-0.180931,9.88719,-0.260394,-0.409111,3.75415,3.97437,-0.267334
990,-2.00458e-38,-0.376855,-0.186868,9.89441,-0.27844,-0.3654,-4.92993,3.97583,-0.268555
991,-2.00575e-38,-0.382956,-0.202704,9.89062,-0.0792376,-0.431459,2.31104,3.97485,-0.267334
992,-2.00692e-38,-0.385767,-0.204249,9.90176,-0.228466,-0.372751,6.55933,3.97534,-0.26709
993,-2.00809e-38,-0.396675,-0.198277,9.87683,-0.212163,-0.370689,-5.16455,3.97485,-0.265869
994,-2.00926e-38,-0.372534,-0.192318,9.91623,-0.200752,-0.323495,4.77783,3.97388,-0.268555
995,-2.01042e-38,-0.377713,-0.1743,9.89138,-0.291195,-0.338633,1.4209,3.97363,-0.268555
996,-2.01159e-38,-0.393471,-0.194228,9.89526,-0.270499,-0.465756,2.0498,3.97412,-0.26416
997,-2.01276e-38,-0.385231,-0.17566,9.90649,-0.204043,-0.365361,7.95386,3.97217,-0.268555
998,-2.01393e-38,-0.388185,-0.18774,9.88063,-0.106389,-0.395189,-1.25244,3.97192,-0.267334
999,-2.01509e-38,-0.386861,-0.178334,9.86439,-0.262149,-0.30828,7.61108,3.97363,-0.268555
1000,-2.01626e-38,-0.385216,-0.190595,9.89149,-0.227467,-0.282179,1.47119,3.9751,-0.268311
1001,-2.01743e-38,-0.385789,-0.177877,9.90112,-0.247779,-0.33684,0.898438,3.97217,-0.268555
1002,-2.0186e-38,-0.395917,-0.178421,9.91264,-0.171923,-0.446226,-5.53589,3.97778,-0.269775
1003,-2.01976e-38,-0.382455,-0.178156,9.87353,-0.154031,-0.267016,6.45557,3.97461,-0.268311
1004,-2.02093e-38,-0.376769,-0.196403,9.89291,-0.238789,-0.33894,-7.50488,3.97925,-0.265625
1005,-2.0221e-38,-0.376948,-0.185881,9.91529,-0.115277,-0.357997,-7.97217,3.97534,-0.265869
1006,-2.02327e-38,-0.37865,-0.179436,9.8881,-0.154415,-0.276288,4.51636,3.97314,-0.269043
1007,-2.02444e-38,-0.388364,-0.170946,9.91453,-0.184666,-0.366168,-6.29126,3.97388,-0.268066
1008,-2.0256e-38,-0.375875,-0.168986,9.88836,-0.241324,-0.257333,4.87769,3.97754,-0.266357
1009,-2.02677e-38,-0.396217,-0.198842,9.87748,-0.119657,-0.374262,2.88672,3.97583,-0.268066
1010,-2.02794e-38,-0.392376,-0.192204,9.88304,-0.254849,-0.330769,7.71411,3.97485,-0.265869
1011,-2.02911e-38,-0.382656,-0.173857,9.89049,-0.134372,-0.36695,4.49023,3.97314,-0.267578
1012,-2.03027e-38,-0.400774,-0.176447,9.8987,-0.316387,-0.378169,-2.01758,3.9751,-0.267822
1013,-2.03144e-38,-0.380209,-0.175259,9.91978,-0.137958,-0.319128,7.74194,3.97363,-0.269775
1014,-2.03261e-38,-0.384086,-0.170316,9.89264,-0.224995,-0.385289,-1.22778,3.9729,-0.266113
1015,-2.03378e-38,-0.380131,-0.184322,9.89757,-0.153493,-0.276903,2.25903,3.97437,-0.267334
1016,-2.03494e-38,-0.392684,-0.19327,9.89429,-0.204235,-0.460967,6.87256,3.97632,-0.27002
1017,-2.03611e-38,-0.382484,-0.174207,9.87058,-0.180824,-0.329847,4.34912,3.98071,-0.265381
1018,-2.03728e-38,-0.379601,-0.193549,9.87539,-0.0880874,-0.276634,-2.80518,3.97559,-0.27002
1019,-2.03845e-38,-0.370997,-0.196718,9.86572,-0.259408,-0.392525,0.633301,3.97412,-0.266846
1020,-2.03962e-38,-0.384844,-0.191274,9.89049,-0.233435,-0.45423,-1.57031,3.97412,-0.268311
1021,-2.04078e-38,-0.372441,-0.175652,9.91792,-0.214173,-0.415271,-3.98511,3.97534,-0.26709
1022,-2.04195e-38,-0.372699,-0.188599,9.91024,-0.197703,-0.387479,-3.98608,3.97632,-0.264404
1023,-2.04312e-38,-0.399679,-0.167262,9.91596,-0.176853,-0.454614,1.41895,3.9751,-0.268555
1024,-2.04429e-38,-0.403191,-0.162463,9.89248,-0.158526,-0.384009,7.45068,3.97559,-0.265869
1025,-2.04545e-38,-0.39739,-0.19518,9.89124,-0.102073,-0.286162,6.90259,3.97363,-0.270264
1026,-2.04662e-38,-0.384115,-0.184465,9.88727,-0.240082,-0.382036,7.42871,3.97241,-0.26709
1027,-2.04779e-38,-0.39194,-0.179536,9.88787,-0.162996,-0.372726,-0.262451,3.97681,-0.267334
1028,-2.04896e-38,-0.39297,-0.174329,9.91014,-0.110231,-0.289761,5.56714,3.97217,-0.265625
1029,-2.05013e-38,-0.384523,-0.183478,9.9168,-0.272433,-0.266414,3.28174,3.97461,-0.265381
1030,-2.05129e-38,-0.392548,-0.176539,9.91013,-0.171795,-0.401734,-2.43457,3.97339,-0.270508
1031,-2.05246e-38,-0.383142,-0.17626,9.90054,-0.109168,-0.420586,4.11743,3.97754,-0.26709
1032,-2.05363e-38,-0.386425,-0.196002,9.89465,-0.234114,-0.440847,1.57764,3.97412,-0.270264
1033,-2.0548e-38,-0.383936,-0.197862,9.867,-0.269539,-0.331935,-6.15918,3.97314,-0.27002
1034,-2.05596e-38,-0.384029,-0.187412,9.88939,-0.137548,-0.374659,5.11572,3.97607,-0.264404
1035,-2.05713e-38,-0.404558,-0.183993,9.90157,-0.147448,-0.383202,5.09595,3.97119,-0.269531
1036,-2.0583e-38,-0.384387,-0.194836,9.88743,-0.176059,-0.364683,1.37012,3.97241,-0.260498
1037,-2.05947e-38,-0.378149,-0.184994,9.89114,-0.104442,-0.361532,-6.29517,3.97681,-0.27002
1038,-2.06063e-38,-0.381969,-0.189994,9.89673,-0.100702,-0.362147,1.99243,3.97754,-0.267578
1039,-2.0618e-38,-0.387319,-0.192047,9.86579,-0.15211,-0.350185,2.51953,3.97583,-0.264893
1040,-2.06297e-38,-0.387713,-0.175974,9.89754,-0.270883,-0.396624,6.71802,3.97461,-0.268066
1041,-2.06414e-38,-0.381118,-0.184922,9.90066,-0.174945,-0.400735,4.854,3.97559,-0.267334
1042,-2.06531e-38,-0.387062,-0.182233,9.90843,-0.184013,-0.377861,4.12183,3.97412,-0.269043
1043,-2.06647e-38,-0.375217,-0.189951,9.90213,-0.129595,-0.410686,2.8894,3.97388,-0.266846
1044,-2.06764e-38,-0.383657,-0.17719,9.89934,-0.0914812,-0.474824,3.51465,3.97705,-0.268311
1045,-2.06881e-38,-0.371318,-0.173757,9.89705,-0.152161,-0.2872,0.947021,3.97485,-0.26709
1046,-2.06998e-38,-0.391876,-0.181625,9.91438,-0.141045,-0.315657,-4.76929,3.97339,-0.266357
1047,-2.07114e-38,-0.38546,-0.171082,9.88691,-0.15024,-0.293526,0.528564,3.97388,-0.269043
1048,-2.07231e-38,-0.37845,-0.180202,9.90098,-0.164635,-0.303644,-3.14331,3.97339,-0.263428
1049,-2.07348e-38,-0.382741,-0.189071,9.91197,-0.107272,-0.331371,-7.63208,3.97607,-0.268311
1050,-2.07465e-38,-0.3789,-0.182469,9.91752,-0.122615,-0.288237,-0.652832,3.97461,-0.265137
1051,-2.07581e-38,-0.384859,-0.182205,9.87018,-0.106414,-0.305206,-6.3418,3.97241,-0.267334
1052,-2.07698e-38,-0.404372,-0.201875,9.91094,-0.164559,-0.270038,-7.2854,3.97192,-0.272461
1053,-2.07815e-38,-0.393313,-0.192719,9.90521,-0.14458,-0.335047,4.25391,3.97339,-0.264404
1054,-2.07932e-38,-0.379351,-0.185709,9.89008,-0.177417,-0.346676,0.63501,3.9729,-0.269531
1055,-2.08049e-38,-0.384093,-0.18503,9.89406,-0.146808,-0.400133,1.10327,3.97583,-0.266357
1056,-2.08165e-38,-0.381583,-0.172341,9.88705,-0.121834,-0.324161,-1.62183,3.97363,-0.264893
1057,-2.08282e-38,-0.406982,-0.181453,9.92111,-0.232923,-0.370933,-2.46436,3.97583,-0.269043
1058,-2.08399e-38,-0.388521,-0.186239,9.89072,-0.248599,-0.402617,-4.09106,3.97632,-0.267822
1059,-2.08516e-38,-0.379709,-0.186525,9.90499,-0.237175,-0.384662,-7.81299,3.97437,-0.268066
1060,-2.08632e-38,-0.39719,-0.177426,9.88604,-0.219821,-0.246076,-3.2749,3.97388,-0.268311
1061,-2.08749e-38,-0.385281,-0.192226,9.94003,-0.170309,-0.304425,1.07593,3.97656,-0.266846
1062,-2.08866e-38,-0.376833,-0.19671,9.89913,-0.27908,-0.345728,4.30151,3.97705,-0.269043
1063,-2.08983e-38,-0.388006,-0.178013,9.89485,-0.252364,-0.328643,-1.1499,3.97363,-0.264893
1064,-2.09099e-38,-0.383607,-0.186439,9.89256,-0.204875,-0.333971,-6.29395,3.97583,-0.266602
1065,-2.09216e-38,-0.388843,-0.188721,9.86528,-0.19358,-0.395369,3.04565,3.97461,-0.265869
1066,-2.09333e-38,-0.398964,-0.175738,9.86444,-0.281872,-0.389759,-7.55347,3.97656,-0.269531
1067,-2.0945e-38,-0.390531,-0.176632,9.90622,-0.200956,-0.383048,5.92627,3.97803,-0.268555
1068,-2.09567e-38,-0.380796,-0.17988,9.88181,-0.183539,-0.437939,1.47095,3.97559,-0.268799
1069,-2.09683e-38,-0.380839,-0.176446,9.89116,-0.157732,-0.332165,1.08081,3.97314,-0.267578
1070,-2.098e-38,-0.385188,-0.168721,9.91185,-0.219245,-0.399313,-7.28784,3.97388,-0.268799
1071,-2.09917e-38,-0.391168,-0.180538,9.90083,-0.227006,-0.363376,5.29907,3.97632,-0.267578
1072,-2.10034e-38,-0.39586,-0.194443,9.88783,-0.185255,-0.312481,-1.93384,3.97144,-0.266846
1073,-2.1015e-38,-0.386311,-0.172641,9.91008,-0.235561,-0.340785,-6.24072,3.97534,-0.267822
1074,-2.10267e-38,-0.382248,-0.182054,9.87293,-0.133104,-0.298316,7.55908,3.97314,-0.265869
1075,-2.10384e-38,-0.391833,-0.182669,9.89546,-0.135948,-0.401977,2.19775,3.98096,-0.270752
1076,-2.10501e-38,-0.397119,-0.206073,9.90237,-0.143286,-0.316157,-3.22314,3.97461,-0.268555
1077,-2.10617e-38,-0.395173,-0.193885,9.92105,-0.269795,-0.353143,-5.1936,3.97705,-0.265869
1078,-2.10734e-38,-0.368922,-0.17797,9.89456,-0.154262,-0.345677,-6.50439,3.97656,-0.268066
1079,-2.10851e-38,-0.397355,-0.17463,9.89987,-0.170347,-0.389196,-5.34717,3.97412,-0.266113
1080,-2.10968e-38,-0.384,-0.166053,9.89951,-0.131926,-0.364734,2.3645,3.97412,-0.266357
1081,-2.11085e-38,-0.38061,-0.169644,9.86439,-0.195001,-0.355679,-5.53125,3.97437,-0.268066
1082,-2.11201e-38,-0.380095,-0.186425,9.85469,-0.1986,-0.324955,-7.07642,3.97266,-0.265869
1083,-2.11318e-38,-0.369988,-0.198842,9.89967,-0.296984,-0.382894,-6.18848,3.97559,-0.269043
1084,-2.11435e-38,-0.390016,-0.198992,9.89893,-0.217926,-0.381191,4.69458,3.97729,-0.267334
1085,-2.11552e-38,-0.364731,-0.169901,9.87658,-0.114111,-0.362928,-0.178955,3.97339,-0.269287
1086,-2.11668e-38,-0.398692,-0.18591,9.88156,-0.180913,-0.309164,-2.33057,3.97412,-0.268555
1087,-2.11785e-38,-0.379194,-0.178921,9.89732,-0.254439,-0.423211,7.66528,3.97217,-0.263916
1088,-2.11902e-38,-0.374015,-0.204364,9.89811,-0.225546,-0.415322,-3.20142,3.97778,-0.266602
1089,-2.12019e-38,-0.373614,-0.173406,9.92118,-0.223266,-0.47905,-4.51025,3.97607,-0.269287
1090,-2.12135e-38,-0.38719,-0.174264,9.90358,-0.238481,-0.353669,6.66406,3.97534,-0.26416
1091,-2.12252e-38,-0.393671,-0.17935,9.92765,-0.117108,-0.443254,6.22144,3.97314,-0.266602
1092,-2.12369e-38,-0.365918,-0.166597,9.87162,-0.244078,-0.432266,2.65576,3.97192,-0.269531
1093,-2.12486e-38,-0.373185,-0.179186,9.90466,-0.146296,-0.398263,-5.81982,3.97437,-0.269043
1094,-2.12603e-38,-0.396983,-0.19887,9.90349,-0.187202,-0.347649,2.83765,3.97314,-0.263916
1095,-2.12719e-38,-0.384229,-0.181947,9.86673,-0.244885,-0.36435,5.09131,3.97485,-0.267578
1096,-2.12836e-38,-0.392276,-0.195337,9.85942,-0.222114,-0.35436,-6.54785,3.96973,-0.265869
1097,-2.12953e-38,-0.389136,-0.18395,9.89821,-0.204133,-0.28515,-0.152588,3.97314,-0.267334
1098,-2.1307e-38,-0.384294,-0.1741,9.90933,-0.183334,-0.323316,-3.77686,3.97656,-0.267334
1099,-2.13186e-38,-0.378228,-0.18601,9.88481,-0.23989,-0.394318,-6.97388,3.97437,-0.265381
1100,-2.13303e-38,-0.391318,-0.181975,9.89303,-0.17442,-0.36435,-6.55396,3.97437,-0.266113
1101,-2.1342e-38,-0.398249,-0.19395,9.90039,-0.169874,-0.355884,1.76245,3.97314,-0.264893
1102,-2.13537e-38,-0.395151,-0.182891,9.87679,-0.237085,-0.317335,6.1665,3.97485,-0.268066
1103,-2.13653e-38,-0.374158,-0.178199,9.89237,-0.199471,-0.218861,4.88599,3.97144,-0.269287
1104,-2.1377e-38,-0.365346,-0.200494,9.88752,-0.164764,-0.299443,5.09155,3.97461,-0.270264
1105,-2.13887e-38,-0.381547,-0.169365,9.88397,-0.145079,-0.271946,-2.80444,3.9751,-0.268066
1106,-2.14004e-38,-0.387884,-0.198341,9.89621,-0.25937,-0.33109,-1.02344,3.97705,-0.267334
1107,-2.14121e-38,-0.384472,-0.17832,9.88024,-0.219168,-0.432432,6.03662,3.97412,-0.266602
1108,-2.14237e-38,-0.379945,-0.177469,9.88008,-0.162714,-0.35354,-3.88257,3.97705,-0.269775
1109,-2.14354e-38,-0.374301,-0.167999,9.904,-0.200316,-0.372418,-6.13159,3.97217,-0.267334
1110,-2.14471e-38,-0.364194,-0.186961,9.90653,-0.12104,-0.351056,-1.51709,3.97363,-0.268555
1111,-2.14588e-38,-0.380517,-0.192841,9.89441,-0.251878,-0.410199,-5.50659,3.97559,-0.264893
1112,-2.14704e-38,-0.368235,-0.189772,9.89207,-0.20777,-0.291554,1.10596,3.97363,-0.268555
1113,-2.14821e-38,-0.395781,-0.174823,9.87575,-0.212137,-0.322611,0.943115,3.97754,-0.268311
1114,-2.14938e-38,-0.390602,-0.187819,9.9026,-0.399403,-0.320306,7.11401,3.97241,-0.266602
1115,-2.15055e-38,-0.375488,-0.172705,9.90969,-0.162381,-0.357255,-0.783447,3.97412,-0.268799
1116,-2.15172e-38,-0.388407,-0.171911,9.90129,-0.28013,-0.337122,5.7229,3.97314,-0.265869
1117,-2.15288e-38,-0.384387,-0.187526,9.8859,-0.164354,-0.367347,-5.45801,3.97852,-0.270508
1118,-2.15405e-38,-0.391454,-0.175488,9.90693,-0.109053,-0.400286,7.50537,3.97412,-0.266846
1119,-2.15522e-38,-0.386575,-0.181246,9.8735,-0.133668,-0.320805,0.475098,3.97485,-0.268555
1120,-2.15639e-38,-0.387126,-0.174244,9.89582,-0.141583,-0.367756,-0.521729,3.97461,-0.266357
1121,-2.15755e-38,-0.372434,-0.195723,9.89067,-0.210703,-0.323533,4.19824,3.97559,-0.270752
1122,-2.15872e-38,-0.38199,-0.198384,9.91866,-0.169643,-0.381345,2.39014,3.97437,-0.266113
1123,-2.15989e-38,-0.385402,-0.185523,9.87347,0.0249611,-0.437747,-4.48535,3.97681,-0.261475
1124,-2.16106e-38,-0.38855,-0.18415,9.93061,-0.207398,-0.368871,0.341064,3.97681,-0.268066
1125,-2.16222e-38,-0.39071,-0.187977,9.86827,-0.177302,-0.426784,-7.65576,3.97437,-0.266846
1126,-2.16339e-38,-0.397948,-0.172527,9.90412,-0.213008,-0.348866,7.63672,3.97388,-0.266602
1127,-2.16456e-38,-0.398478,-0.185495,9.89825,-0.174792,-0.324379,7.79468,3.97339,-0.266602
1128,-2.16573e-38,-0.381361,-0.181117,9.88099,-0.119298,-0.394856,-1.57129,3.97485,-0.267334
1129,-2.1669e-38,-0.380803,-0.187304,9.90099,-0.126675,-0.376312,-1.31006,3.97559,-0.27002
1130,-2.16806e-38,-0.371605,-0.171597,9.86987,-0.146014,-0.365041,-5.18872,3.97314,-0.267822
1131,-2.16923e-38,-0.38566,-0.182934,9.91251,-0.181618,-0.35477,2.36597,3.9729,-0.27002
1132,-2.1704e-38,-0.371569,-0.192805,9.89126,-0.176674,-0.303311,-0.41626,3.97437,-0.267822
1133,-2.17157e-38,-0.39322,-0.186374,9.87619,-0.308075,-0.37311,1.15625,3.97534,-0.27002
1134,-2.17273e-38,-0.388256,-0.201402,9.90481,-0.217516,-0.378117,-5.37305,3.97388,-0.27002
1135,-2.1739e-38,-0.392612,-0.187526,9.90192,-0.133668,-0.338198,6.40039,3.97656,-0.264893
1136,-2.17507e-38,-0.383099,-0.193534,9.9159,-0.114841,-0.251212,6.6145,3.97339,-0.268066
1137,-2.17624e-38,-0.386375,-0.192125,9.88314,-0.157796,-0.34642,3.98999,3.97461,-0.266357
1138,-2.1774e-38,-0.389265,-0.188449,9.90733,-0.151623,-0.348546,2.78369,3.97437,-0.268555
1139,-2.17857e-38,-0.397748,-0.186825,9.9079,-0.151495,-0.413657,-1.98755,3.97241,-0.267578
1140,-2.17974e-38,-0.391647,-0.171497,9.91734,-0.1767,-0.356204,2.41577,3.97485,-0.266113
1141,-2.18091e-38,-0.389329,-0.199314,9.88509,-0.176149,-0.383394,0.997314,3.97656,-0.266602
1142,-2.18208e-38,-0.393857,-0.185237,9.87853,-0.15334,-0.311943,-7.02563,3.97388,-0.267334
1143,-2.18324e-38,-0.404579,-0.203706,9.87852,-0.172397,-0.30513,-2.25171,3.97388,-0.26709
1144,-2.18441e-38,-0.386504,-0.1947,9.89255,-0.250879,-0.39875,2.46704,3.97583,-0.266846
1145,-2.18558e-38,-0.392634,-0.193878,9.90216,-0.0901237,-0.268604,-4.4021,3.97339,-0.26416
1146,-2.18675e-38,-0.389122,-0.193606,9.86164,-0.108592,-0.393114,0.84082,3.97583,-0.263672
1147,-2.18791e-38,-0.39164,-0.199378,9.89099,-0.123192,-0.46194,1.99658,3.97461,-0.265869
1148,-2.18908e-38,-0.399515,-0.173993,9.91256,-0.18026,-0.406869,7.13721,3.97461,-0.268066
1149,-2.19025e-38,-0.390467,-0.183005,9.89711,-0.118888,-0.447365,3.83325,3.97412,-0.267334
1150,-2.19142e-38,-0.383986,-0.188549,9.91865,-0.327644,-0.403155,-0.834961,3.97339,-0.268555
1151,-2.19258e-38,-0.389859,-0.182405,9.85502,-0.214237,-0.39492,-2.27808,3.97388,-0.270264
1152,-2.19375e-38,-0.390617,-0.185387,9.90273,-0.150099,-0.333958,6.69214,3.97437,-0.267334
1153,-2.19492e-38,-0.377291,-0.180173,9.88203,-0.183065,-0.342642,1.86426,3.97534,-0.266113
1154,-2.19609e-38,-0.417733,-0.173507,9.86437,-0.113253,-0.279182,-3.51392,3.97607,-0.265869
1155,-2.19726e-38,-0.393714,-0.191925,9.8826,-0.218528,-0.362762,2.36572,3.97314,-0.268066
1156,-2.19842e-38,-0.386947,-0.171075,9.88486,-0.140302,-0.295934,-3.87524,3.97192,-0.267334
1157,-2.19959e-38,-0.387584,-0.184751,9.91197,-0.0763176,-0.325109,1.052,3.97485,-0.268799
1158,-2.20076e-38,-0.388757,-0.178463,9.89579,-0.197191,-0.401439,5.09277,3.97363,-0.266357
1159,-2.20193e-38,-0.386325,-0.179107,9.89752,-0.183769,-0.318782,3.09473,3.97729,-0.263428
1160,-2.20309e-38,-0.393199,-0.187118,9.89584,-0.220987,-0.330846,6.50659,3.97583,-0.268555
1161,-2.20426e-38,-0.380524,-0.189707,9.88956,-0.184794,-0.340682,-0.832275,3.97144,-0.266357
1162,-2.20543e-38,-0.395037,-0.18332,9.898,-0.160537,-0.305719,2.31372,3.97266,-0.269043
1163,-2.2066e-38,-0.379995,-0.175202,9.89565,-0.163124,-0.318859,-2.93237,3.9729,-0.267578
1164,-2.20776e-38,-0.363658,-0.178528,9.89099,-0.116276,-0.317245,-0.520264,3.97339,-0.265869
1165,-2.20893e-38,-0.373972,-0.187826,9.89861,-0.219219,-0.227775,-7.44507,3.97363,-0.270996
1166,-2.2101e-38,-0.403506,-0.182276,9.91152,-0.181515,-0.304617,-5.19067,3.97461,-0.266357
1167,-2.21127e-38,-0.378629,-0.164415,9.88511,-0.141813,-0.411429,4.92798,3.97925,-0.26709
1168,-2.21244e-38,-0.377942,-0.196782,9.90231,-0.105006,-0.356589,-0.573242,3.97388,-0.265381
1169,-2.2136e-38,-0.366168,-0.165224,9.88999,-0.122141,-0.386532,-0.045166,3.97119,-0.268555
1170,-2.21477e-38,-0.387505,-0.200194,9.89365,-0.196602,-0.347137,-2.30396,3.97363,-0.270996
1171,-2.21594e-38,-0.364609,-0.201352,9.89604,-0.229491,-0.361916,-5.24634,3.97705,-0.266357
1172,-2.21711e-38,-0.395016,-0.171046,9.90073,-0.133553,-0.328938,-4.63892,3.97388,-0.269531
1173,-2.21827e-38,-0.3834,-0.194429,9.91579,-0.169694,-0.219155,-4.56299,3.97607,-0.264404
1174,-2.21944e-38,-0.383049,-0.178406,9.86499,-0.241273,-0.248471,-7.3396,3.97339,-0.269043
1175,-2.22061e-38,-0.398106,-0.193334,9.90571,-0.157002,-0.321907,3.3125,3.97119,-0.268799
1176,-2.22178e-38,-0.38762,-0.187147,9.86686,-0.203825,-0.234895,-5.03784,3.97827,-0.266846
1177,-2.22294e-38,-0.394072,-0.182862,9.8931,-0.142505,-0.376312,7.34692,3.97485,-0.269043
1178,-2.22411e-38,-0.399851,-0.194744,9.89122,-0.124882,-0.376235,4.51514,3.97437,-0.263916
1179,-2.22528e-38,-0.37649,-0.171261,9.87978,-0.1965,-0.322931,-1.15112,3.97461,-0.266113
1180,-2.22645e-38,-0.405745,-0.189743,9.88449,-0.152379,-0.330091,6.32153,3.97681,-0.265869
1181,-2.22762e-38,-0.391024,-0.180158,9.90056,-0.226097,-0.339747,-5.68896,3.97485,-0.26709
1182,-2.22878e-38,-0.38782,-0.167183,9.87154,-0.252544,-0.435941,5.61572,3.97485,-0.267334
1183,-2.22995e-38,-0.387548,-0.184765,9.89296,-0.260433,-0.325775,-4.08765,3.97363,-0.265869
1184,-2.23112e-38,-0.376604,-0.191217,9.90134,-0.149907,-0.409046,7.03076,3.97583,-0.267578
1185,-2.23229e-38,-0.395123,-0.175001,9.93056,-0.197383,-0.343231,-0.602295,3.97583,-0.267334
1186,-2.23345e-38,-0.388235,-0.196253,9.89457,-0.14805,-0.378937,0.0817871,3.97461,-0.271484
1187,-2.23462e-38,-0.376712,-0.176754,9.91487,-0.131503,-0.344255,2.65259,3.97437,-0.266602
1188,-2.23579e-38,-0.383872,-0.176339,9.8823,-0.12113,-0.380397,2.23633,3.97192,-0.267334
1189,-2.23696e-38,-0.393235,-0.184164,9.89913,-0.132054,-0.390015,-1.30688,3.97339,-0.266113
1190,-2.23813e-38,-0.397183,-0.185001,9.89019,-0.0780466,-0.370484,-7.89404,3.97607,-0.262451
1191,-2.23929e-38,-0.386153,-0.18714,9.88587,-0.108323,-0.269487,-3.80103,3.97485,-0.267578
1192,-2.24046e-38,-0.38865,-0.186947,9.8989,-0.13865,-0.262341,-4.66895,3.97681,-0.267822
1193,-2.24163e-38,-0.381804,-0.205673,9.91436,-0.310137,-0.337519,-0.915283,3.97461,-0.268799
1194,-2.2428e-38,-0.37752,-0.186153,9.90938,-0.259933,-0.316464,-2.48926,3.97485,-0.268799
1195,-2.24396e-38,-0.386304,-0.195845,9.91326,-0.144067,-0.332024,7.6084,3.97534,-0.269287
1196,-2.24513e-38,-0.396132,-0.185895,9.89587,-0.119657,-0.354514,4.83203,3.97241,-0.269043
1197,-2.2463e-38,-0.384658,-0.186396,9.89342,-0.231028,-0.388811,7.03174,3.9751,-0.263916
1198,-2.24747e-38,-0.381597,-0.177326,9.87343,-0.272318,-0.343346,1.89062,3.97534,-0.26709
1199,-2.24863e-38,-0.377169,-0.174107,9.9229,-0.187432,-0.31307,2.10376,3.9729,-0.266113
1200,-2.2498e-38,-0.383128,-0.188027,9.92645,-0.171193,-0.391296,-6.13428,3.97412,-0.269775
1201,-2.25097e-38,-0.367291,-0.198456,9.90684,-0.212099,-0.452232,-2.67407,3.97583,-0.266602
1202,-2.25214e-38,-0.393206,-0.18714,9.89414,-0.16192,-0.326748,4.77612,3.9751,-0.265381
1203,-2.25331e-38,-0.384086,-0.197161,9.91532,-0.114611,-0.348238,6.81738,3.97852,-0.268555
1204,-2.25447e-38,-0.374308,-0.181833,9.89333,-0.0858717,-0.383125,7.13989,3.9729,-0.265381
1205,-2.25564e-38,-0.379959,-0.182276,9.88637,-0.155402,-0.296075,5.40601,3.9751,-0.266846
1206,-2.25681e-38,-0.384773,-0.188778,9.88461,-0.072437,-0.349045,-4.30298,3.97778,-0.267822
1207,-2.25798e-38,-0.367062,-0.202361,9.90514,-0.118466,-0.304835,3.91528,3.97168,-0.265869
1208,-2.25914e-38,-0.37375,-0.198184,9.86902,-0.246678,-0.355334,1.41553,3.97754,-0.268555
1209,-2.26031e-38,-0.37993,-0.175652,9.83723,-0.136947,-0.247831,-0.577148,3.97681,-0.265869
1210,-2.26148e-38,-0.372828,-0.16385,9.90153,-0.148627,-0.420573,-4.66675,3.9751,-0.266602
1211,-2.26265e-38,-0.390416,-0.197655,9.90502,-0.235664,-0.327542,-4.56201,3.97559,-0.270752
1212,-2.26381e-38,-0.399472,-0.199743,9.90918,-0.164021,-0.435993,7.19214,3.9729,-0.268311
1213,-2.26498e-38,-0.370625,-0.194321,9.89308,-0.137395,-0.217952,0.712891,3.97339,-0.270996
1214,-2.26615e-38,-0.383385,-0.196296,9.92866,-0.132861,-0.313979,3.28369,3.97314,-0.266846
1215,-2.26732e-38,-0.3939,-0.2047,9.9033,-0.109129,-0.252595,6.40356,3.97388,-0.268555
1216,-2.26849e-38,-0.392062,-0.191503,9.88353,-0.135205,-0.331717,0.105957,3.97607,-0.266846
1217,-2.26965e-38,-0.373042,-0.193842,9.88788,-0.140276,-0.403335,-4.56177,3.9751,-0.267822
1218,-2.27082e-38,-0.382355,-0.202433,9.93589,-0.101599,-0.314863,0.789551,3.97485,-0.266357
1219,-2.27199e-38,-0.361805,-0.183327,9.89506,-0.105979,-0.37042,-7.3938,3.97461,-0.266357
1220,-2.27316e-38,-0.384616,-0.174329,9.88211,-0.200265,-0.376286,-4.51123,3.97656,-0.266113
1221,-2.27432e-38,-0.394944,-0.194335,9.86733,-0.146091,-0.381358,3.41187,3.97534,-0.266846
1222,-2.27549e-38,-0.358937,-0.172441,9.87894,-0.139072,-0.31704,3.04663,3.97388,-0.268066
1223,-2.27666e-38,-0.390982,-0.175674,9.90828,-0.131042,-0.283831,1.31396,3.9751,-0.265381
1224,-2.27783e-38,-0.394579,-0.193606,9.90602,-0.216914,-0.309868,-1.93555,3.97266,-0.267334
1225,-2.27899e-38,-0.369351,-0.18229,9.90318,-0.0786229,-0.3706,-5.50659,3.97559,-0.266602
1226,-2.28016e-38,-0.367234,-0.187197,9.85885,-0.131836,-0.332114,-1.38477,3.97266,-0.267334
1227,-2.28133e-38,-0.390166,-0.178929,9.87525,-0.183116,-0.251353,-7.89087,3.97388,-0.268066
1228,-2.2825e-38,-0.380703,-0.173785,9.88227,-0.343564,-0.340234,-1.04614,3.97461,-0.266357
1229,-2.28367e-38,-0.388077,-0.181661,9.87328,-0.134897,-0.453974,-6.03174,3.97607,-0.265137
1230,-2.28483e-38,-0.390953,-0.18641,9.86415,-0.104775,-0.337327,-2.14722,3.97388,-0.265869
1231,-2.286e-38,-0.375324,-0.184801,9.88903,-0.141916,-0.371061,-2.51367,3.97339,-0.264893
1232,-2.28717e-38,-0.383013,-0.196231,9.88727,-0.127777,-0.293859,-7.55078,3.97437,-0.26709
1233,-2.28834e-38,-0.399265,-0.187927,9.9198,-0.107887,-0.32402,-6.37061,3.97437,-0.265869
1234,-2.2895e-38,-0.388979,-0.199707,9.85269,-0.0971676,-0.287379,7.71436,3.97461,-0.267578
1235,-2.29067e-38,-0.395581,-0.178971,9.90531,-0.124447,-0.313429,-2.67065,3.97314,-0.270508
1236,-2.29184e-38,-0.385939,-0.187834,9.87508,-0.1981,-0.320178,-4.24829,3.97607,-0.266846
1237,-2.29301e-38,-0.40096,-0.178842,9.86718,-0.228159,-0.35582,-1.93799,3.97461,-0.270508
1238,-2.29417e-38,-0.389058,-0.172448,9.87595,-0.178723,-0.344857,6.19238,3.9751,-0.266357
1239,-2.29534e-38,-0.394951,-0.174908,9.87258,-0.216133,-0.289415,-7.31494,3.97461,-0.27002
1240,-2.29651e-38,-0.370002,-0.190502,9.89624,-0.0757029,-0.29596,-4.302,3.97705,-0.267822
1241,-2.29768e-38,-0.391296,-0.154079,9.90262,-0.116967,-0.288634,-0.259277,3.97461,-0.269775
1242,-2.29885e-38,-0.386318,-0.191854,9.86971,-0.038511,-0.24053,-0.520264,3.97363,-0.265137
1243,-2.30001e-38,-0.368364,-0.195587,9.86485,-0.237534,-0.507636,4.30176,3.97681,-0.268311
1244,-2.30118e-38,-0.411031,-0.191045,9.90252,-0.216133,-0.315542,-6.4751,3.97412,-0.267578
1245,-2.30235e-38,-0.388306,-0.18631,9.88305,-0.169413,-0.382241,2.02173,3.97534,-0.267822
1246,-2.30352e-38,-0.390288,-0.172877,9.88556,-0.178083,-0.370574,6.98145,3.97363,-0.269043
1247,-2.30468e-38,-0.395517,-0.187219,9.9019,-0.172883,-0.287558,0.265381,3.97485,-0.264893
1248,-2.30585e-38,-0.398392,-0.194243,9.90368,-0.318948,-0.278222,2.49463,3.97461,-0.265381
1249,-2.30702e-38,-0.36845,-0.176504,9.89345,-0.107938,-0.411339,-3.90405,3.97388,-0.268066
1250,-2.30819e-38,-0.382412,-0.177398,9.90348,-0.198101,-0.309727,7.05371,3.97827,-0.263428
1251,-2.30935e-38,-0.377477,-0.169558,9.91639,-0.166838,-0.323751,-3.19507,3.97314,-0.269043
1252,-2.31052e-38,-0.378085,-0.171089,9.90538,-0.121604,-0.411352,3.56738,3.97681,-0.263916
1253,-2.31169e-38,-0.376483,-0.167041,9.87981,-0.223113,-0.496903,3.88818,3.97217,-0.267822
1254,-2.31286e-38,-0.360317,-0.174537,9.88229,-0.23779,-0.457816,-3.77222,3.9729,-0.267578
1255,-2.31403e-38,-0.373858,-0.17915,9.88115,-0.275097,-0.331679,4.40771,3.97632,-0.263916
1256,-2.31519e-38,-0.38659,-0.177054,9.9004,-0.249982,-0.404641,3.30347,3.97803,-0.269531
1257,-2.31636e-38,-0.37315,-0.177548,9.87027,-0.246422,-0.396444,-6.76367,3.97412,-0.264893
1258,-2.31753e-38,-0.38649,-0.199993,9.9033,-0.208359,-0.318884,-6.23657,3.97241,-0.269531
1259,-2.3187e-38,-0.39935,-0.188249,9.91743,-0.143376,-0.270909,7.55713,3.97437,-0.268066
1260,-2.31986e-38,-0.403685,-0.193542,9.86612,-0.158514,-0.288993,7.92456,3.97437,-0.263672
1261,-2.32103e-38,-0.385359,-0.181589,9.89674,-0.206451,-0.431856,0.0219727,3.97998,-0.27002
1262,-2.3222e-38,-0.384544,-0.191424,9.90371,-0.114701,-0.367923,1.60352,3.97412,-0.264893
1263,-2.32337e-38,-0.367449,-0.202089,9.87844,-0.130031,-0.318756,-1.30469,3.97144,-0.266602
1264,-2.32453e-38,-0.376011,-0.192769,9.8812,-0.172115,-0.412965,-5.92041,3.97119,-0.264404
1265,-2.3257e-38,-0.381826,-0.166032,9.8386,-0.221384,-0.466717,-4.66504,3.97388,-0.266602
1266,-2.32687e-38,-0.41111,-0.204815,9.99131,-0.0411877,-0.24687,-5.26709,3.97314,-0.266602
1267,-2.32804e-38,-0.374673,-0.190795,9.78957,-0.183769,-0.381025,-1.31006,3.97559,-0.267334
1268,-2.32921e-38,-0.380967,-0.185244,9.9169,-0.312686,-0.450542,-4.56128,3.97485,-0.26709
1269,-2.33037e-38,-0.398249,-0.202604,9.93018,-0.0887661,-0.28866,-2.98291,3.97144,-0.262939
1270,-2.33154e-38,-0.396597,-0.216066,9.85615,-0.245026,-0.370279,7.8457,3.97437,-0.264648
1271,-2.33271e-38,-0.374315,-0.173492,9.89692,-0.160384,-0.37083,2.10303,3.97339,-0.263184
1272,-2.33388e-38,-0.391725,-0.165531,9.88366,-0.157476,-0.281859,-2.85376,3.9729,-0.267822
1273,-2.33504e-38,-0.394143,-0.193821,9.90661,-0.216402,-0.414989,-4.67065,3.97803,-0.269043
1274,-2.33621e-38,-0.389994,-0.190008,9.86433,-0.0888942,-0.418806,-7.44531,3.97412,-0.267822
1275,-2.33738e-38,-0.363901,-0.196768,9.90109,-0.249086,-0.392116,2.20874,3.9729,-0.267578
1276,-2.33855e-38,-0.374866,-0.188012,9.86912,-0.10539,-0.398545,3.35742,3.97681,-0.268799
1277,-2.33972e-38,-0.366898,-0.17988,9.92225,-0.137523,-0.319179,7.53198,3.97388,-0.268799
1278,-2.34088e-38,-0.392884,-0.18297,9.90358,-0.122449,-0.384918,-5.97974,3.97632,-0.268066
1279,-2.34205e-38,-0.393757,-0.189586,9.87771,-0.211561,-0.373571,4.72144,3.97681,-0.265381
1280,-2.34322e-38,-0.3939,-0.17121,9.88952,-0.166095,-0.353182,-0.308594,3.97217,-0.268555
1281,-2.34439e-38,-0.386354,-0.174994,9.89447,-0.124549,-0.388811,1.26172,3.97485,-0.267334
1282,-2.34555e-38,-0.409522,-0.181075,9.89754,-0.22383,-0.381358,6.66431,3.97534,-0.272949
1283,-2.34672e-38,-0.37885,-0.196768,9.86754,-0.195974,-0.332959,-2.12183,3.97461,-0.27002
1284,-2.34789e-38,-0.384887,-0.185037,9.89781,-0.332524,-0.3284,-0.759766,3.97607,-0.269775
1285,-2.34906e-38,-0.382999,-0.174844,9.911,-0.215224,-0.342373,-4.40356,3.97461,-0.271973
1286,-2.35022e-38,-0.38154,-0.191167,9.86992,-0.18213,-0.395292,5.77417,3.97412,-0.268311
1287,-2.3518e-38,-0.378822,-0.194822,9.91189,-0.26763,-0.28743,0.369141,3.97559,-0.271973
1288,-2.35413e-38,-0.379086,-0.191146,9.83683,-0.185639,-0.3362,-0.050293,3.97534,-0.267334
1289,-2.35647e-38,-0.374301,-0.169794,9.90905,-0.260766,-0.384559,4.78247,3.97046,-0.273193
1290,-2.3588e-38,-0.39493,-0.160574,9.87219,-0.0930693,-0.33853,4.67017,3.97583,-0.269531
1291,-2.36114e-38,-0.394143,-0.204207,9.88329,-0.123858,-0.287968,3.88135,3.97729,-0.268311
1292,-2.36347e-38,-0.374616,-0.185602,9.93428,-0.166377,-0.332101,7.45044,3.97607,-0.274414
1293,-2.36581e-38,-0.399751,-0.18229,9.88094,-0.137075,-0.352004,2.30908,3.97632,-0.270752
1294,-2.36814e-38,-0.39566,-0.196861,9.89851,-0.156452,-0.342923,0.556641,3.97266,-0.269531
1295,-2.37048e-38,-0.394415,-0.179286,9.93224,-0.253863,-0.305911,0.975342,3.97339,-0.268066
1296,-2.37281e-38,-0.390037,-0.192004,9.86907,-0.192517,-0.291541,-0.130859,3.97656,-0.272461
1297,-2.37515e-38,-0.37531,-0.181353,9.90353,-0.0961558,-0.301633,1.07739,3.97534,-0.273438
1298,-2.37749e-38,-0.390281,-0.172062,9.89569,-0.101983,-0.35121,-3.09033,3.97339,-0.269775
1299,-2.37982e-38,-0.384301,-0.182205,9.87291,-0.146577,-0.303004,-3.56201,3.9729,-0.274902
1300,-2.38216e-38,-0.391396,-0.173034,9.8701,-0.143017,-0.36394,4.72363,3.9751,-0.270752
1301,-2.38449e-38,-0.39008,-0.169594,9.87022,-0.292041,-0.348494,3.51782,3.97461,-0.274658
1302,-2.38683e-38,-0.396833,-0.174415,9.88886,-0.275635,-0.417743,-3.48901,3.97705,-0.27002
1303,-2.38916e-38,-0.38983,-0.187476,9.88796,-0.188931,-0.38926,2.38745,3.97656,-0.269287
1304,-2.3915e-38,-0.362406,-0.190559,9.90453,-0.191492,-0.398967,-0.236084,3.97656,-0.272949
