PacketCounter,SampleTimeFine,timestamp_ms,roll_deg,pitch_deg,yaw_deg
0,5.34379e+08,534379,0.0343273,1.18542,45.7783
1,5.34387e+08,534387,0.0358156,1.18741,45.7816
2,5.34396e+08,534396,0.0383167,1.18852,45.786
3,5.34404e+08,534404,0.0298541,1.20286,45.7586
4,5.34412e+08,534412,0.0314814,1.2053,45.7629
5,5.34421e+08,534421,0.0338339,1.19672,45.776
6,5.34429e+08,534429,0.0357951,1.19746,45.7798
7,5.34437e+08,534437,0.0374786,1.18707,45.814
8,5.34446e+08,534446,0.0400624,1.1876,45.8175
9,5.34454e+08,534454,0.0429066,1.18449,45.8346
10,5.34462e+08,534462,0.0455235,1.1858,45.8388
11,5.34471e+08,534471,0.0456086,1.18328,45.8471
12,5.34479e+08,534479,0.0483492,1.18428,45.8517
13,5.34487e+08,534487,0.0473588,1.18292,45.8515
14,5.34496e+08,534496,0.0501453,1.18401,45.8557
15,5.34504e+08,534504,0.0504734,1.18349,45.8526
16,5.34512e+08,534512,0.0518733,1.18481,45.8568
17,5.34521e+08,534521,0.0526638,1.18714,45.8768
18,5.34529e+08,534529,0.0548148,1.18823,45.8811
19,5.34537e+08,534537,0.0566805,1.18676,45.8895
20,5.34546e+08,534546,0.0591828,1.18803,45.8937
21,5.34554e+08,534554,0.0614666,1.18753,45.8896
22,5.34562e+08,534562,0.0634228,1.18952,45.8945
23,5.34571e+08,534571,0.0646713,1.18932,45.9113
24,5.34579e+08,534579,0.066732,1.19066,45.9155
25,5.34587e+08,534587,0.0694424,1.19091,45.9019
26,5.34596e+08,534596,0.0717666,1.19302,45.9054
27,5.34604e+08,534604,0.0735416,1.19347,45.8887
28,5.34612e+08,534612,0.0763608,1.19463,45.8937
29,5.34621e+08,534621,0.0779133,1.19448,45.8845
30,5.34629e+08,534629,0.080772,1.19593,45.8877
31,5.34637e+08,534637,0.082339,1.1966,45.8934
32,5.34646e+08,534646,0.0845458,1.19768,45.8973
33,5.34654e+08,534654,0.086161,1.19729,45.9027
34,5.34662e+08,534662,0.0884722,1.19866,45.9064
35,5.34671e+08,534671,0.0899995,1.19909,45.9042
36,5.34679e+08,534679,0.0921375,1.19958,45.9086
37,5.34687e+08,534687,0.093627,1.19966,45.9067
38,5.34696e+08,534696,0.0957689,1.20153,45.9112
39,5.34704e+08,534704,0.0976368,1.20248,45.9123
40,5.34712e+08,534712,0.0991961,1.20431,45.9158
41,5.34721e+08,534721,0.100481,1.20543,45.9263
42,5.34729e+08,534729,0.103074,1.20626,45.9297
43,5.34737e+08,534737,0.103095,1.20713,45.9218
44,5.34746e+08,534746,0.104924,1.2085,45.9261
45,5.34754e+08,534754,0.105478,1.20932,45.9255
46,5.34762e+08,534762,0.106942,1.21063,45.9293
47,5.34771e+08,534771,0.108293,1.21143,45.9297
48,5.34779e+08,534779,0.110981,1.21255,45.9333
49,5.34787e+08,534787,0.111467,1.21347,45.9274
50,5.34796e+08,534796,0.113769,1.21411,45.9327
51,5.34804e+08,534804,0.115633,1.21541,45.9275
52,5.34812e+08,534812,0.117726,1.21622,45.9306
53,5.34821e+08,534821,0.119352,1.21645,45.9375
54,5.34829e+08,534829,0.121854,1.21812,45.9429
55,5.34837e+08,534837,0.12318,1.21827,45.9421
56,5.34846e+08,534846,0.125879,1.21922,45.9455
57,5.34854e+08,534854,0.127394,1.21993,45.9452
58,5.34862e+08,534862,0.129647,1.22117,45.9493
59,5.34871e+08,534871,0.132017,1.22189,45.9442
60,5.34879e+08,534879,0.133192,1.22338,45.9488
61,5.34887e+08,534887,0.133836,1.22426,45.9462
62,5.34896e+08,534896,0.136967,1.22502,45.9506
63,5.34904e+08,534904,0.138795,1.22542,45.9441
64,5.34912e+08,534912,0.141264,1.2267,45.9483
65,5.34921e+08,534921,0.142224,1.22635,45.9504
66,5.34929e+08,534929,0.143836,1.22706,45.9546
67,5.34937e+08,534937,0.144411,1.22648,45.9549
68,5.34946e+08,534946,0.147324,1.2273,45.9588
69,5.34954e+08,534954,0.148788,1.22753,45.9519
70,5.34962e+08,534962,0.150849,1.22977,45.9559
71,5.34971e+08,534971,0.151302,1.23121,45.9535
72,5.34979e+08,534979,0.153689,1.23241,45.9572
73,5.34987e+08,534987,0.154704,1.2328,45.9562
74,5.34996e+08,534996,0.156836,1.23406,45.9603
75,5.35004e+08,535004,0.157648,1.23411,45.9651
76,5.35012e+08,535012,0.159646,1.23495,45.9687
77,5.35021e+08,535021,0.160772,1.23613,45.9697
78,5.35029e+08,535029,0.16373,1.23714,45.9737
79,5.35037e+08,535037,0.16458,1.23744,45.964
80,5.35046e+08,535046,0.167732,1.23798,45.9685
81,5.35054e+08,535054,0.168999,1.23932,45.9684
82,5.35062e+08,535062,0.171005,1.24075,45.9727
83,5.35071e+08,535071,0.172102,1.24141,45.9707
84,5.35079e+08,535079,0.174784,1.24262,45.9742
85,5.35087e+08,535087,0.175728,1.24302,45.9739
86,5.35096e+08,535096,0.178562,1.24372,45.9779
87,5.35104e+08,535104,0.17999,1.24407,45.9741
88,5.35112e+08,535112,0.182987,1.24508,45.9776
89,5.35121e+08,535121,0.183205,1.24624,45.975
90,5.35129e+08,535129,0.187075,1.24797,45.9787
91,5.35137e+08,535137,0.188395,1.24885,45.9816
92,5.35146e+08,535146,0.190367,1.25009,45.9855
93,5.35154e+08,535154,0.192028,1.25103,45.9788
94,5.35162e+08,535162,0.193641,1.25317,45.9832
95,5.35171e+08,535171,0.194031,1.25341,45.9812
96,5.35179e+08,535179,0.196243,1.25418,45.9847
97,5.35187e+08,535187,0.197529,1.25494,45.9828
98,5.35196e+08,535196,0.199352,1.25539,45.9871
99,5.35204e+08,535204,0.199774,1.25618,45.9827
100,5.35212e+08,535212,0.202107,1.25726,45.9871
101,5.35221e+08,535221,0.202732,1.25748,45.98
102,5.35229e+08,535229,0.204545,1.25896,45.9843
103,5.35237e+08,535237,0.205514,1.25902,45.9849
104,5.35246e+08,535246,0.207708,1.25947,45.9889
105,5.35254e+08,535254,0.208251,1.25997,45.9897
106,5.35262e+08,535262,0.210656,1.26223,45.994
107,5.35271e+08,535271,0.21155,1.2627,45.9777
108,5.35279e+08,535279,0.214135,1.26414,45.9815
109,5.35287e+08,535287,0.214525,1.26495,45.9736
110,5.35296e+08,535296,0.217226,1.26683,45.9767
111,5.35304e+08,535304,0.217634,1.26727,45.9692
112,5.35312e+08,535312,0.220022,1.26865,45.9728
113,5.35321e+08,535321,0.220314,1.26954,45.9759
114,5.35329e+08,535329,0.222234,1.27044,45.98
115,5.35337e+08,535337,0.222668,1.27077,45.9807
116,5.35346e+08,535346,0.224945,1.27206,45.9831
117,5.35354e+08,535354,0.225561,1.27245,45.9782
118,5.35362e+08,535362,0.226981,1.27318,45.9828
119,5.35371e+08,535371,0.227303,1.27373,45.9803
120,5.35379e+08,535379,0.22971,1.27485,45.9827
121,5.35387e+08,535387,0.230151,1.27475,45.9803
122,5.35396e+08,535396,0.232398,1.27572,45.9832
123,5.35404e+08,535404,0.232923,1.27521,45.9776
124,5.35412e+08,535412,0.235023,1.27578,45.9809
125,5.35421e+08,535421,0.236199,1.27609,45.9777
126,5.35429e+08,535429,0.237792,1.2773,45.9813
127,5.35437e+08,535437,0.238707,1.2779,45.9785
128,5.35446e+08,535446,0.24135,1.27869,45.9818
129,5.35454e+08,535454,0.242363,1.27864,45.9738
130,5.35462e+08,535462,0.24518,1.27998,45.976
131,5.35471e+08,535471,0.245546,1.28015,45.9693
132,5.35479e+08,535479,0.247065,1.28152,45.9723
133,5.35487e+08,535487,0.24711,1.28134,45.9607
134,5.35496e+08,535496,0.250472,1.28279,45.9637
135,5.35504e+08,535504,0.25124,1.28279,45.9597
136,5.35512e+08,535512,0.253193,1.28407,45.9625
137,5.35521e+08,535521,0.254065,1.28458,45.9524
138,5.35529e+08,535529,0.255787,1.28524,45.9554
139,5.35537e+08,535537,0.256259,1.28519,45.9498
140,5.35546e+08,535546,0.258601,1.28719,45.9523
141,5.35554e+08,535554,0.259663,1.28695,45.9419
142,5.35562e+08,535562,0.262104,1.28801,45.9446
143,5.35571e+08,535571,0.262629,1.28882,45.9347
144,5.35579e+08,535579,0.264241,1.29009,45.9374
145,5.35587e+08,535587,0.265413,1.29097,45.9333
146,5.35596e+08,535596,0.268284,1.2919,45.937
147,5.35604e+08,535604,0.268898,1.29261,45.9327
148,5.35612e+08,535612,0.270509,1.29348,45.9354
149,5.35621e+08,535621,0.271065,1.29363,45.9364
150,5.35629e+08,535629,0.273477,1.29512,45.9385
151,5.35637e+08,535637,0.273568,1.29542,45.9392
152,5.35646e+08,535646,0.27568,1.29704,45.9411
153,5.35654e+08,535654,0.277088,1.2978,45.9442
154,5.35662e+08,535662,0.278698,1.29946,45.9465
155,5.35671e+08,535671,0.279494,1.29893,45.9382
156,5.35679e+08,535679,0.281433,1.30005,45.94
157,5.35687e+08,535687,0.281897,1.30092,45.9239
158,5.35696e+08,535696,0.283819,1.30197,45.9259
159,5.35704e+08,535704,0.284297,1.30233,45.9176
160,5.35712e+08,535712,0.286385,1.30334,45.9199
161,5.35721e+08,535721,0.286678,1.30309,45.9094
162,5.35729e+08,535729,0.288587,1.3044,45.911
163,5.35737e+08,535737,0.288337,1.30383,45.9057
164,5.35746e+08,535746,0.290772,1.30518,45.9073
165,5.35754e+08,535754,0.290345,1.30625,45.8991
166,5.35762e+08,535762,0.2932,1.30716,45.9014
167,5.35771e+08,535771,0.293448,1.30667,45.8712
168,5.35779e+08,535779,0.295414,1.30762,45.873
169,5.35787e+08,535787,0.295476,1.30748,45.8644
170,5.35796e+08,535796,0.298166,1.30902,45.8661
171,5.35804e+08,535804,0.298905,1.31053,45.8492
172,5.35812e+08,535812,0.301875,1.3111,45.8521
173,5.35821e+08,535821,0.30298,1.3114,45.8505
174,5.35829e+08,535829,0.305337,1.31323,45.8525
175,5.35837e+08,535837,0.305461,1.31369,45.8494
176,5.35846e+08,535846,0.306783,1.31452,45.8513
177,5.35854e+08,535854,0.306958,1.31488,45.8463
178,5.35862e+08,535862,0.308906,1.31533,45.8477
179,5.35871e+08,535871,0.310002,1.31581,45.8329
180,5.35879e+08,535879,0.312222,1.31718,45.8349
181,5.35887e+08,535887,0.312361,1.31703,45.8176
182,5.35896e+08,535896,0.314524,1.31788,45.8197
183,5.35904e+08,535904,0.314785,1.31785,45.8049
184,5.35912e+08,535912,0.316791,1.31947,45.8054
185,5.35921e+08,535921,0.31734,1.31931,45.804
186,5.35929e+08,535929,0.319119,1.31997,45.8049
187,5.35937e+08,535937,0.320233,1.32061,45.8101
188,5.35946e+08,535946,0.322097,1.32243,45.8106
189,5.35954e+08,535954,0.322021,1.32306,45.8002
190,5.35962e+08,535962,0.323482,1.32459,45.8017
191,5.35971e+08,535971,0.323271,1.32379,45.7921
192,5.35979e+08,535979,0.326582,1.32561,45.794
193,5.35987e+08,535987,0.326531,1.3258,45.7855
194,5.35996e+08,535996,0.327814,1.32636,45.7869
195,5.36004e+08,536004,0.327093,1.32666,45.7822
196,5.36012e+08,536012,0.329187,1.3276,45.7826
197,5.36021e+08,536021,0.328388,1.32722,45.7779
198,5.36029e+08,536029,0.330356,1.32832,45.7798
199,5.36037e+08,536037,0.330449,1.32813,45.7784
200,5.36046e+08,536046,0.332985,1.32939,45.78
201,5.36054e+08,536054,0.333632,1.32956,45.7707
202,5.36062e+08,536062,0.335698,1.33113,45.7719
203,5.36071e+08,536071,0.335711,1.33038,45.761
204,5.36079e+08,536079,0.338394,1.33047,45.7628
205,5.36087e+08,536087,0.337715,1.32959,45.7585
206,5.36096e+08,536096,0.33894,1.33057,45.7594
207,5.36104e+08,536104,0.339433,1.33114,45.7597
208,5.36112e+08,536112,0.341076,1.33218,45.7608
209,5.36121e+08,536121,0.342133,1.33262,45.7535
210,5.36129e+08,536129,0.344179,1.33414,45.7545
211,5.36137e+08,536137,0.344136,1.33472,45.7489
212,5.36146e+08,536146,0.345793,1.33632,45.75
213,5.36154e+08,536154,0.345475,1.33595,45.7407
214,5.36162e+08,536162,0.347003,1.3364,45.7415
215,5.36171e+08,536171,0.346998,1.33623,45.7325
216,5.36179e+08,536179,0.34934,1.33721,45.7333
217,5.36187e+08,536187,0.349226,1.33639,45.7273
218,5.36196e+08,536196,0.350757,1.33749,45.7274
219,5.36204e+08,536204,0.350451,1.3368,45.7191
220,5.36212e+08,536212,0.352143,1.33784,45.7188
221,5.36221e+08,536221,0.352259,1.33816,45.7099
222,5.36229e+08,536229,0.354281,1.33952,45.7103
223,5.36237e+08,536237,0.354074,1.33948,45.702
224,5.36246e+08,536246,0.356263,1.34087,45.7026
225,5.36254e+08,536254,0.354994,1.34123,45.6911
226,5.36262e+08,536262,0.356788,1.34224,45.6918
227,5.36271e+08,536271,0.356927,1.34214,45.6842
228,5.36279e+08,536279,0.359106,1.34301,45.6846
229,5.36287e+08,536287,0.35883,1.34223,45.6764
230,5.36296e+08,536296,0.360833,1.34357,45.6765
231,5.36304e+08,536304,0.360776,1.34355,45.6657
232,5.36312e+08,536312,0.362378,1.34508,45.6664
233,5.36321e+08,536321,0.362642,1.34463,45.6605
234,5.36329e+08,536329,0.363835,1.34608,45.6613
235,5.36337e+08,536337,0.362763,1.3454,45.6633
236,5.36346e+08,536346,0.364899,1.34628,45.6641
237,5.36354e+08,536354,0.363684,1.34557,45.6653
238,5.36362e+08,536362,0.366084,1.34668,45.6655
239,5.36371e+08,536371,0.0390616,1.16649,45.6246
240,5.36379e+08,536379,0.0414118,1.16722,45.6248
241,5.36387e+08,536387,0.0407871,1.16663,45.6222
242,5.36396e+08,536396,0.0405724,1.16674,45.6224
243,5.36404e+08,536404,0.0411477,1.16693,45.6312
244,5.36412e+08,536412,0.0410852,1.16726,45.6307
245,5.36421e+08,536421,0.0420044,1.16715,45.6334
246,5.36429e+08,536429,0.0428448,1.16698,45.6336
247,5.36437e+08,536437,0.043727,1.16671,45.6375
248,5.36446e+08,536446,0.0431734,1.16631,45.638
249,5.36454e+08,536454,0.0431398,1.16663,45.6412
250,5.36462e+08,536462,0.0436123,1.16644,45.6416
251,5.36471e+08,536471,0.0427629,1.16618,45.6409
252,5.36479e+08,536479,0.0433362,1.16714,45.6407
253,5.36487e+08,536487,0.0431898,1.16699,45.6415
254,5.36496e+08,536496,0.043074,1.16658,45.6423
255,5.36504e+08,536504,0.0433759,1.16634,45.6439
256,5.36512e+08,536512,0.0428583,1.16572,45.6438
257,5.36521e+08,536521,0.0431195,1.16542,45.6429
258,5.36529e+08,536529,0.0429164,1.1651,45.6432
259,5.36537e+08,536537,0.0429059,1.16566,45.6483
260,5.36546e+08,536546,0.044036,1.16571,45.6484
261,5.36554e+08,536554,0.0440479,1.16469,45.6492
262,5.36562e+08,536562,0.0441111,1.16458,45.6501
263,5.36571e+08,536571,0.0448535,1.1644,45.652
264,5.36579e+08,536579,0.0453182,1.1646,45.6528
265,5.36587e+08,536587,0.0462959,1.16479,45.6548
266,5.36596e+08,536596,0.046831,1.16513,45.6564
267,5.36604e+08,536604,0.0471048,1.16474,45.6577
268,5.36612e+08,536612,0.0468131,1.16457,45.6572
269,5.36621e+08,536621,0.0477936,1.16447,45.6583
270,5.36629e+08,536629,0.0480471,1.16494,45.6583
271,5.36637e+08,536637,0.0481658,1.16467,45.6611
272,5.36646e+08,536646,0.048755,1.1645,45.6609
273,5.36654e+08,536654,0.0486434,1.16459,45.6614
274,5.36662e+08,536662,0.049314,1.16551,45.6615
275,5.36671e+08,536671,0.0493486,1.16494,45.6629
276,5.36679e+08,536679,0.0496732,1.16494,45.6631
277,5.36687e+08,536687,0.0502654,1.16482,45.665
278,5.36696e+08,536696,0.0502544,1.16501,45.6652
279,5.36704e+08,536704,0.0504005,1.16456,45.6661
280,5.36712e+08,536712,0.0506209,1.16401,45.6661
281,5.36721e+08,536721,0.0505203,1.16371,45.6683
282,5.36729e+08,536729,0.0500427,1.16397,45.6681
283,5.36737e+08,536737,0.0507049,1.16446,45.6724
284,5.36746e+08,536746,0.0501222,1.16509,45.672
285,5.36754e+08,536754,0.0500246,1.16497,45.6691
286,5.36762e+08,536762,0.0503781,1.16584,45.6686
287,5.36771e+08,536771,0.0506067,1.16527,45.6656
288,5.36779e+08,536779,0.0498732,1.16505,45.6656
289,5.36787e+08,536787,0.0498471,1.16514,45.6654
290,5.36796e+08,536796,0.0505394,1.16547,45.6648
291,5.36804e+08,536804,0.0503589,1.16464,45.6672
292,5.36812e+08,536812,0.0500002,1.16381,45.6669
293,5.36821e+08,536821,0.0500931,1.16357,45.6684
294,5.36829e+08,536829,0.0501348,1.16372,45.6685
295,5.36837e+08,536837,0.050487,1.16323,45.6709
296,5.36846e+08,536846,0.0515099,1.16336,45.6708
297,5.36854e+08,536854,0.0522287,1.16366,45.6724
298,5.36862e+08,536862,0.0512397,1.16432,45.6716
299,5.36871e+08,536871,0.0510649,1.16473,45.6718
300,5.36879e+08,536879,0.050589,1.16587,45.6716
301,5.36887e+08,536887,0.050278,1.16593,45.6715
302,5.36896e+08,536896,0.0504488,1.16566,45.6709
303,5.36904e+08,536904,0.0510878,1.16641,45.6706
304,5.36912e+08,536912,0.0508048,1.16615,45.6707
305,5.36921e+08,536921,0.0508115,1.16675,45.6747
306,5.36929e+08,536929,0.0503403,1.16604,45.6752
307,5.36937e+08,536937,0.0501808,1.1649,45.6766
308,5.36946e+08,536946,0.0506394,1.16527,45.6768
309,5.36954e+08,536954,0.0500409,1.16474,45.6784
310,5.36962e+08,536962,0.0503856,1.16414,45.6782
311,5.36971e+08,536971,0.0498156,1.16371,45.6781
312,5.36979e+08,536979,0.0501663,1.16366,45.678
313,5.36987e+08,536987,0.0500427,1.1629,45.6786
314,5.36996e+08,536996,0.0502266,1.1636,45.6784
315,5.37004e+08,537004,0.0497115,1.16372,45.6802
316,5.37012e+08,537012,0.0502178,1.16362,45.6797
317,5.37021e+08,537021,0.0503446,1.16329,45.6822
318,5.37029e+08,537029,0.0506108,1.16363,45.682
319,5.37037e+08,537037,0.0507352,1.16313,45.683
320,5.37046e+08,537046,0.050052,1.16243,45.6833
321,5.37054e+08,537054,0.0498521,1.16169,45.6841
322,5.37062e+08,537062,0.0502733,1.16214,45.6846
323,5.37071e+08,537071,0.049624,1.16199,45.6853
324,5.37079e+08,537079,0.0498195,1.1618,45.6853
325,5.37087e+08,537087,0.0507072,1.16155,45.6848
326,5.37096e+08,537096,0.0512605,1.16097,45.6848
327,5.37104e+08,537104,0.051835,1.16039,45.6851
328,5.37112e+08,537112,0.0514953,1.16032,45.6848
329,5.37121e+08,537121,0.05245,1.15994,45.6865
330,5.37129e+08,537129,0.052796,1.16009,45.6862
331,5.37137e+08,537137,0.0527641,1.15998,45.6863
332,5.37146e+08,537146,0.0529632,1.16058,45.6862
333,5.37154e+08,537154,0.0530096,1.15958,45.6883
334,5.37162e+08,537162,0.0535012,1.15966,45.6884
335,5.37171e+08,537171,0.0542009,1.16003,45.6875
336,5.37179e+08,537179,0.0537998,1.15988,45.6868
337,5.37187e+08,537187,0.0536867,1.16028,45.6872
338,5.37196e+08,537196,0.0537315,1.16004,45.6878
339,5.37204e+08,537204,0.0539348,1.16021,45.689
340,5.37212e+08,537212,0.0543626,1.15952,45.6889
341,5.37221e+08,537221,0.053938,1.15905,45.6915
342,5.37229e+08,537229,0.0550522,1.15931,45.6916
343,5.37237e+08,537237,0.0552098,1.15928,45.6913
344,5.37246e+08,537246,0.0553353,1.16034,45.6912
345,5.37254e+08,537254,0.0550675,1.15907,45.6904
346,5.37262e+08,537262,0.0546735,1.15889,45.69
347,5.37271e+08,537271,0.0540301,1.15867,45.6908
348,5.37279e+08,537279,0.0548297,1.15849,45.6908
349,5.37287e+08,537287,0.0550033,1.15899,45.6899
350,5.37296e+08,537296,0.0553133,1.15948,45.6894
351,5.37304e+08,537304,0.0557848,1.15942,45.6868
352,5.37312e+08,537312,0.054586,1.15917,45.6866
353,5.37321e+08,537321,0.0557972,1.15911,45.687
354,5.37329e+08,537329,0.0555058,1.1591,45.6879
355,5.37337e+08,537337,0.0554639,1.15962,45.6885
356,5.37346e+08,537346,0.0562956,1.15884,45.6881
357,5.37354e+08,537354,0.0567625,1.15914,45.6892
358,5.37362e+08,537362,0.0565927,1.15881,45.6887
359,5.37371e+08,537371,0.0558834,1.1584,45.6883
360,5.37379e+08,537379,0.0565788,1.15887,45.6885
361,5.37387e+08,537387,0.0567458,1.15869,45.6884
362,5.37396e+08,537396,0.0571449,1.15778,45.6875
363,5.37404e+08,537404,0.0576739,1.15762,45.6889
364,5.37412e+08,537412,0.0579097,1.1582,45.689
365,5.37421e+08,537421,0.0580829,1.15838,45.6919
366,5.37429e+08,537429,0.0579744,1.15863,45.6919
367,5.37437e+08,537437,0.0580577,1.15821,45.692
368,5.37446e+08,537446,0.0575671,1.15836,45.6919
369,5.37454e+08,537454,0.0573493,1.15875,45.6938
370,5.37462e+08,537462,0.0574294,1.15837,45.694
371,5.37471e+08,537471,0.0575899,1.1584,45.6934
372,5.37479e+08,537479,0.0572108,1.15848,45.6934
373,5.37487e+08,537487,0.0576448,1.15847,45.6932
374,5.37496e+08,537496,0.0574318,1.15836,45.6942
375,5.37504e+08,537504,0.0568814,1.15844,45.696
376,5.37512e+08,537512,0.0565644,1.15857,45.6956
377,5.37521e+08,537521,0.0567941,1.15853,45.6979
378,5.37529e+08,537529,0.0561241,1.1576,45.6976
379,5.37537e+08,537537,0.0562707,1.15753,45.6989
380,5.37546e+08,537546,0.0569744,1.1573,45.6989
381,5.37554e+08,537554,0.0567012,1.15774,45.6995
382,5.37562e+08,537562,0.0572113,1.15815,45.6995
383,5.37571e+08,537571,0.0569613,1.1593,45.7016
384,5.37579e+08,537579,0.0562513,1.15938,45.7013
385,5.37587e+08,537587,0.0558879,1.15916,45.7035
386,5.37596e+08,537596,0.0557582,1.15952,45.703
387,5.37604e+08,537604,0.0560818,1.15982,45.7018
388,5.37612e+08,537612,0.0559401,1.16019,45.702
389,5.37621e+08,537621,0.0562305,1.15992,45.7042
390,5.37629e+08,537629,0.0560688,1.15922,45.7037
391,5.37637e+08,537637,0.0565575,1.15884,45.7062
392,5.37646e+08,537646,0.0563729,1.1584,45.7068
393,5.37654e+08,537654,0.0562946,1.15858,45.708
394,5.37662e+08,537662,0.0569368,1.1582,45.7092
395,5.37671e+08,537671,0.0570206,1.15765,45.7088
396,5.37679e+08,537679,0.0573318,1.15815,45.7079
397,5.37687e+08,537687,0.0576681,1.15831,45.7082
398,5.37696e+08,537696,0.0588195,1.15787,45.7084
399,5.37704e+08,537704,0.0589202,1.15769,45.7095
400,5.37712e+08,537712,0.0583448,1.15715,45.7094
401,5.37721e+08,537721,0.0589117,1.15778,45.7092
402,5.37729e+08,537729,0.0586497,1.15806,45.7081
403,5.37737e+08,537737,0.0584307,1.15816,45.7079
404,5.37746e+08,537746,0.0575474,1.15739,45.7089
405,5.37754e+08,537754,0.0575376,1.15655,45.7091
406,5.37762e+08,537762,0.057193,1.15553,45.7092
407,5.37771e+08,537771,0.0569156,1.15537,45.71
408,5.37779e+08,537779,0.0571785,1.15486,45.7103
409,5.37787e+08,537787,0.0582238,1.15505,45.7108
410,5.37796e+08,537796,0.0585401,1.15494,45.7108
411,5.37804e+08,537804,0.0579401,1.15513,45.7119
412,5.37812e+08,537812,0.0573516,1.15557,45.7118
413,5.37821e+08,537821,0.0583881,1.15532,45.7131
414,5.37829e+08,537829,0.0575016,1.155,45.713
415,5.37837e+08,537837,0.0573644,1.15688,45.7162
416,5.37846e+08,537846,0.0580431,1.15726,45.7157
417,5.37854e+08,537854,0.0587018,1.15754,45.7208
418,5.37862e+08,537862,0.0593534,1.15773,45.7218
419,5.37871e+08,537871,0.0597089,1.15811,45.7218
420,5.37879e+08,537879,0.0598116,1.15856,45.7216
421,5.37887e+08,537887,0.0590732,1.15787,45.7209
422,5.37896e+08,537896,0.0585793,1.15746,45.7213
423,5.37904e+08,537904,0.058982,1.1576,45.7212
424,5.37912e+08,537912,0.0578761,1.15766,45.7213
425,5.3792e+08,537920,0.0585579,1.15846,45.7218
426,5.37929e+08,537929,0.0587612,1.15872,45.7209
427,5.37937e+08,537937,0.0585357,1.15793,45.7213
428,5.37945e+08,537945,0.0589182,1.15773,45.721
429,5.37954e+08,537954,0.0588307,1.15759,45.7225
430,5.37962e+08,537962,0.058434,1.15665,45.7228
431,5.3797e+08,537970,0.0588497,1.1561,45.7238
432,5.37979e+08,537979,0.0590828,1.156,45.7244
433,5.37987e+08,537987,0.0587613,1.1565,45.7253
434,5.37995e+08,537995,0.0584897,1.1566,45.7252
435,5.38004e+08,538004,0.0592101,1.15589,45.7274
436,5.38012e+08,538012,0.0597529,1.15585,45.7284
437,5.3802e+08,538020,0.0592058,1.15566,45.7292
438,5.38029e+08,538029,0.0600388,1.15573,45.7302
439,5.38037e+08,538037,0.0605504,1.15526,45.7328
440,5.38045e+08,538045,0.0598412,1.15521,45.7328
441,5.38054e+08,538054,0.0594847,1.1559,45.7345
442,5.38062e+08,538062,0.0600434,1.15649,45.7349
443,5.3807e+08,538070,0.0602005,1.15672,45.7323
444,5.38079e+08,538079,0.0602215,1.15644,45.7324
445,5.38087e+08,538087,0.0594074,1.15644,45.7335
446,5.38095e+08,538095,0.0603284,1.15575,45.7325
447,5.38104e+08,538104,0.0612596,1.15537,45.7341
448,5.38112e+08,538112,0.0603252,1.15516,45.7339
449,5.3812e+08,538120,0.0607511,1.15497,45.735
450,5.38129e+08,538129,0.0612803,1.15473,45.7346
451,5.38137e+08,538137,0.06209,1.15527,45.7351
452,5.38145e+08,538145,0.0620145,1.15527,45.7351
453,5.38154e+08,538154,0.0625586,1.15545,45.7356
454,5.38162e+08,538162,0.0623129,1.15551,45.7362
455,5.3817e+08,538170,0.0621903,1.15637,45.7364
456,5.38179e+08,538179,0.0617568,1.15598,45.7371
457,5.38187e+08,538187,0.0615742,1.15501,45.7379
458,5.38195e+08,538195,0.0619386,1.15479,45.7372
459,5.38204e+08,538204,0.0615925,1.15484,45.7385
460,5.38212e+08,538212,0.0609127,1.15447,45.7384
461,5.3822e+08,538220,0.0611074,1.15384,45.7389
462,5.38229e+08,538229,0.0602681,1.15393,45.7392
463,5.38237e+08,538237,0.0609536,1.15364,45.7396
464,5.38245e+08,538245,0.06137,1.15408,45.7384
465,5.38254e+08,538254,0.0610783,1.15442,45.7389
466,5.38262e+08,538262,0.0605432,1.15441,45.7392
467,5.3827e+08,538270,0.0606679,1.15506,45.7407
468,5.38279e+08,538279,0.0606573,1.15449,45.7408
469,5.38287e+08,538287,0.060752,1.1543,45.744
470,5.38295e+08,538295,0.0609545,1.1536,45.7446
471,5.38304e+08,538304,0.061043,1.15398,45.7444
472,5.38312e+08,538312,0.0612259,1.15462,45.744
473,5.3832e+08,538320,0.0614427,1.15489,45.7448
474,5.38329e+08,538329,0.0612053,1.15515,45.7448
475,5.38337e+08,538337,0.0600371,1.15552,45.7457
476,5.38345e+08,538345,0.0602083,1.15531,45.7448
477,5.38354e+08,538354,0.0603091,1.15463,45.7435
478,5.38362e+08,538362,0.0599184,1.15432,45.7439
479,5.3837e+08,538370,0.047384,1.16725,45.7442
480,5.38379e+08,538379,0.0474572,1.16676,45.7444
481,5.38387e+08,538387,0.0473861,1.16657,45.7447
482,5.38395e+08,538395,0.0470917,1.16645,45.745
483,5.38404e+08,538404,0.0471121,1.1662,45.7442
484,5.38412e+08,538412,0.0473651,1.16656,45.7445
485,5.3842e+08,538420,0.0463776,1.16653,45.7443
486,5.38429e+08,538429,0.047019,1.16618,45.7444
487,5.38437e+08,538437,0.0461197,1.16645,45.7446
488,5.38445e+08,538445,0.0457457,1.1662,45.7455
489,5.38454e+08,538454,0.0466636,1.16515,45.7468
490,5.38462e+08,538462,0.0467808,1.16623,45.7467
491,5.3847e+08,538470,0.0465584,1.16664,45.7474
492,5.38479e+08,538479,0.0456675,1.16664,45.7485
493,5.38487e+08,538487,0.0451076,1.16736,45.7491
494,5.38495e+08,538495,0.0451636,1.1672,45.7495
495,5.38504e+08,538504,0.0446197,1.16797,45.7498
496,5.38512e+08,538512,0.0450595,1.16776,45.7507
497,5.3852e+08,538520,0.0444404,1.16754,45.747
498,5.38529e+08,538529,0.0444883,1.16764,45.7469
499,5.38537e+08,538537,0.0441066,1.1683,45.7486
500,5.38545e+08,538545,0.0439445,1.16878,45.7479
501,5.38554e+08,538554,0.0442991,1.1693,45.749
502,5.38562e+08,538562,0.0444369,1.16954,45.7494
503,5.3857e+08,538570,0.0454987,1.17052,45.7494
504,5.38579e+08,538579,0.0453929,1.17091,45.7498
505,5.38587e+08,538587,0.0459469,1.17057,45.7478
506,5.38595e+08,538595,0.0455063,1.17076,45.748
507,5.38604e+08,538604,0.0464404,1.17026,45.7501
508,5.38612e+08,538612,0.0462122,1.1705,45.7498
509,5.3862e+08,538620,0.0451625,1.1701,45.7494
510,5.38629e+08,538629,0.0446835,1.17001,45.75
511,5.38637e+08,538637,0.0454587,1.17002,45.7499
512,5.38645e+08,538645,0.0454952,1.16916,45.7499
513,5.38654e+08,538654,0.0455196,1.16947,45.7514
514,5.38662e+08,538662,0.0449633,1.17065,45.7508
515,5.3867e+08,538670,0.0450709,1.17028,45.7514
516,5.38679e+08,538679,0.0452826,1.16977,45.7514
517,5.38687e+08,538687,0.0452127,1.17,45.7508
518,5.38695e+08,538695,0.0443254,1.16975,45.7504
519,5.38704e+08,538704,0.043851,1.17033,45.7512
520,5.38712e+08,538712,0.0437277,1.17169,45.7514
521,5.3872e+08,538720,0.0430105,1.17187,45.751
522,5.38729e+08,538729,0.043119,1.17191,45.7502
523,5.38737e+08,538737,0.0432699,1.17185,45.7494
524,5.38745e+08,538745,0.043536,1.17133,45.7491
525,5.38754e+08,538754,0.0439446,1.17078,45.7506
526,5.38762e+08,538762,0.0439467,1.17055,45.7506
527,5.3877e+08,538770,0.0440817,1.16957,45.7503
528,5.38779e+08,538779,0.0439922,1.16949,45.75
529,5.38787e+08,538787,0.0438905,1.16897,45.7492
530,5.38795e+08,538795,0.0442602,1.16861,45.7495
531,5.38804e+08,538804,0.0437968,1.16877,45.7499
532,5.38812e+08,538812,0.0435901,1.16948,45.7496
533,5.3882e+08,538820,0.0431114,1.16982,45.7521
534,5.38829e+08,538829,0.0428631,1.17007,45.7522
535,5.38837e+08,538837,0.0431336,1.16996,45.755
536,5.38845e+08,538845,0.0427061,1.16954,45.7559
537,5.38854e+08,538854,0.0437391,1.16959,45.7564
538,5.38862e+08,538862,0.0430979,1.16956,45.7562
539,5.3887e+08,538870,0.0433555,1.16966,45.7559
540,5.38879e+08,538879,0.0443103,1.17008,45.7563
541,5.38887e+08,538887,0.0448819,1.16994,45.7559
542,5.38895e+08,538895,0.0448529,1.16918,45.7556
543,5.38904e+08,538904,0.0442105,1.16986,45.7559
544,5.38912e+08,538912,0.0439782,1.16977,45.756
545,5.3892e+08,538920,0.042962,1.16998,45.7568
546,5.38929e+08,538929,0.0429009,1.17007,45.7567
547,5.38937e+08,538937,0.043077,1.16978,45.7577
548,5.38945e+08,538945,0.0431168,1.17036,45.7584
549,5.38954e+08,538954,0.0433198,1.17091,45.7597
550,5.38962e+08,538962,0.0429426,1.17072,45.7598
551,5.3897e+08,538970,0.0429541,1.17177,45.7604
552,5.38979e+08,538979,0.0438873,1.1715,45.7608
553,5.38987e+08,538987,0.0438867,1.17182,45.7613
554,5.38995e+08,538995,0.0447359,1.17194,45.7616
555,5.39004e+08,539004,0.0440548,1.17228,45.7612
556,5.39012e+08,539012,0.0441555,1.17227,45.7615
557,5.3902e+08,539020,0.0442088,1.17244,45.7621
558,5.39029e+08,539029,0.0441807,1.17259,45.7615
559,5.39037e+08,539037,0.0449995,1.17253,45.7611
560,5.39045e+08,539045,0.0453746,1.17233,45.7619
561,5.39054e+08,539054,0.0457629,1.17241,45.7628
562,5.39062e+08,539062,0.0453333,1.1722,45.7623
563,5.3907e+08,539070,0.0453964,1.17322,45.7628
564,5.39079e+08,539079,0.0454851,1.17437,45.7621
565,5.39087e+08,539087,0.0453948,1.17562,45.7626
566,5.39095e+08,539095,0.0454929,1.17604,45.7625
567,5.39104e+08,539104,0.0442268,1.17563,45.7614
568,5.39112e+08,539112,0.0443664,1.1754,45.762
569,5.3912e+08,539120,0.0444784,1.17496,45.7625
570,5.39129e+08,539129,0.0436616,1.17553,45.7633
571,5.39137e+08,539137,0.0434542,1.17526,45.7633
572,5.39145e+08,539145,0.0434784,1.17531,45.7631
573,5.39154e+08,539154,0.0433165,1.17527,45.7641
574,5.39162e+08,539162,0.044023,1.17502,45.7642
575,5.3917e+08,539170,0.0443562,1.17512,45.7637
576,5.39179e+08,539179,0.0448987,1.17549,45.7632
577,5.39187e+08,539187,0.0454097,1.17564,45.7622
578,5.39195e+08,539195,0.0456743,1.17612,45.7634
579,5.39204e+08,539204,0.0459501,1.17651,45.7638
580,5.39212e+08,539212,0.0453984,1.17626,45.7641
581,5.3922e+08,539220,0.0462446,1.17613,45.7642
582,5.39229e+08,539229,0.0462937,1.17559,45.7636
583,5.39237e+08,539237,0.045323,1.17573,45.7637
584,5.39245e+08,539245,0.0460035,1.17582,45.7637
585,5.39254e+08,539254,0.045855,1.1752,45.7637
586,5.39262e+08,539262,0.0461183,1.17545,45.7631
587,5.3927e+08,539270,0.0463509,1.17486,45.7644
588,5.39279e+08,539279,0.0461544,1.17553,45.7642
589,5.39287e+08,539287,0.0461075,1.17618,45.7651
590,5.39295e+08,539295,0.0460673,1.17647,45.7647
591,5.39304e+08,539304,0.0447321,1.17635,45.7641
592,5.39312e+08,539312,0.0444021,1.17674,45.7635
593,5.3932e+08,539320,0.0436449,1.17642,45.7634
594,5.39329e+08,539329,0.0436957,1.17588,45.7641
595,5.39337e+08,539337,0.0437421,1.17626,45.765
596,5.39345e+08,539345,0.0435643,1.17592,45.7653
597,5.39354e+08,539354,0.0433324,1.1755,45.764
598,5.39362e+08,539362,0.042564,1.17508,45.7638
599,5.3937e+08,539370,0.0421845,1.17575,45.7636
600,5.39379e+08,539379,0.0425991,1.17613,45.7636
601,5.39387e+08,539387,0.0433025,1.1765,45.7639
602,5.39395e+08,539395,0.0433255,1.17589,45.763
603,5.39404e+08,539404,0.043458,1.17564,45.7636
604,5.39412e+08,539412,0.0435729,1.17544,45.7628
605,5.3942e+08,539420,0.0434746,1.17501,45.7634
606,5.39429e+08,539429,0.0426951,1.17449,45.7631
607,5.39437e+08,539437,0.0420136,1.17434,45.7641
608,5.39445e+08,539445,0.0417655,1.17401,45.7648
609,5.39454e+08,539454,0.0415516,1.17484,45.7657
610,5.39462e+08,539462,0.0411017,1.17553,45.7654
611,5.3947e+08,539470,0.0406472,1.17584,45.7651
612,5.39479e+08,539479,0.0413709,1.17634,45.7648
613,5.39487e+08,539487,0.0418706,1.17616,45.7643
614,5.39495e+08,539495,0.0418069,1.17622,45.7641
615,5.39504e+08,539504,0.0411155,1.17659,45.7643
616,5.39512e+08,539512,0.0413373,1.17641,45.764
617,5.3952e+08,539520,0.0413636,1.17627,45.764
618,5.39529e+08,539529,0.0418878,1.1763,45.7632
619,5.39537e+08,539537,0.0413715,1.17649,45.7641
620,5.39545e+08,539545,0.0423742,1.17682,45.7641
621,5.39554e+08,539554,0.0426885,1.17613,45.7644
622,5.39562e+08,539562,0.0423332,1.17584,45.7647
623,5.3957e+08,539570,0.041328,1.17549,45.7642
624,5.39579e+08,539579,0.041465,1.17506,45.7638
625,5.39587e+08,539587,0.0424771,1.17532,45.7638
626,5.39595e+08,539595,0.0429333,1.17588,45.7639
627,5.39604e+08,539604,0.0429316,1.17586,45.7637
628,5.39612e+08,539612,0.0420515,1.17583,45.7631
629,5.3962e+08,539620,0.0420797,1.17611,45.7647
630,5.39629e+08,539629,0.0419073,1.17716,45.7649
631,5.39637e+08,539637,0.0420033,1.17742,45.7646
632,5.39645e+08,539645,0.0424734,1.17774,45.7643
633,5.39654e+08,539654,0.0427587,1.17851,45.7646
634,5.39662e+08,539662,0.0424341,1.17878,45.7644
635,5.3967e+08,539670,0.0419964,1.17797,45.7637
636,5.39679e+08,539679,0.0418897,1.17798,45.7635
637,5.39687e+08,539687,0.0417874,1.17774,45.7636
638,5.39695e+08,539695,0.0418002,1.17708,45.7631
639,5.39704e+08,539704,0.0417565,1.17653,45.7636
640,5.39712e+08,539712,0.0422433,1.17669,45.7641
641,5.3972e+08,539720,0.0413163,1.17716,45.7653
642,5.39729e+08,539729,0.0418495,1.17639,45.7647
643,5.39737e+08,539737,0.0416013,1.17639,45.7658
644,5.39745e+08,539745,0.0415564,1.17645,45.7661
645,5.39754e+08,539754,0.0418427,1.17676,45.7653
646,5.39762e+08,539762,0.0422092,1.177,45.7657
647,5.3977e+08,539770,0.0415031,1.17703,45.7655
648,5.39779e+08,539779,0.0421699,1.17617,45.7659
649,5.39787e+08,539787,0.0423113,1.17646,45.7647
650,5.39795e+08,539795,0.0428217,1.17646,45.7642
651,5.39804e+08,539804,0.0428276,1.17614,45.7646
652,5.39812e+08,539812,0.0426476,1.17702,45.7657
653,5.3982e+08,539820,0.0431692,1.17766,45.7661
654,5.39829e+08,539829,0.0429781,1.17691,45.7658
655,5.39837e+08,539837,0.0430373,1.1782,45.7657
656,5.39845e+08,539845,0.0427465,1.17731,45.7655
657,5.39854e+08,539854,0.0427835,1.17682,45.7658
658,5.39862e+08,539862,0.0423663,1.17662,45.7656
659,5.3987e+08,539870,0.0417515,1.17653,45.7659
660,5.39879e+08,539879,0.042052,1.17685,45.7661
661,5.39887e+08,539887,0.0416584,1.17684,45.7664
662,5.39895e+08,539895,0.0413152,1.17616,45.7655
663,5.39904e+08,539904,0.0413829,1.17642,45.7665
664,5.39912e+08,539912,0.0414954,1.17662,45.7665
665,5.3992e+08,539920,0.0407237,1.17661,45.7661
666,5.39929e+08,539929,0.0403803,1.17702,45.766
667,5.39937e+08,539937,0.0403333,1.17745,45.7664
668,5.39945e+08,539945,0.0409195,1.17758,45.7664
669,5.39954e+08,539954,0.0408211,1.17825,45.7674
670,5.39962e+08,539962,0.040408,1.17857,45.7682
671,5.3997e+08,539970,0.0406267,1.17897,45.7681
672,5.39979e+08,539979,0.0405182,1.17839,45.7684
673,5.39987e+08,539987,0.0411281,1.17863,45.7686
674,5.39995e+08,539995,0.0410705,1.17815,45.7684
675,5.40004e+08,540004,0.0414381,1.17755,45.7681
676,5.40012e+08,540012,0.0409365,1.17698,45.7678
677,5.4002e+08,540020,0.0401436,1.17668,45.7682
678,5.40029e+08,540029,0.0395441,1.17587,45.7678
679,5.40037e+08,540037,0.0395099,1.17589,45.7692
680,5.40045e+08,540045,0.0404574,1.17615,45.769
681,5.40054e+08,540054,0.040433,1.1762,45.7683
682,5.40062e+08,540062,0.0402232,1.17542,45.7683
683,5.4007e+08,540070,0.0402016,1.17506,45.7682
684,5.40079e+08,540079,0.0395266,1.17552,45.7687
685,5.40087e+08,540087,0.0400178,1.17561,45.7687
686,5.40095e+08,540095,0.040378,1.17497,45.7691
687,5.40104e+08,540104,0.0394805,1.17505,45.7696
688,5.40112e+08,540112,0.0391062,1.17413,45.7692
689,5.4012e+08,540120,0.0386212,1.17375,45.7705
690,5.40129e+08,540129,0.0388042,1.17502,45.77
691,5.40137e+08,540137,0.0382748,1.17527,45.77
692,5.40145e+08,540145,0.0390276,1.17517,45.7691
693,5.40154e+08,540154,0.0396505,1.17557,45.7705
694,5.40162e+08,540162,0.0392784,1.17551,45.7704
695,5.4017e+08,540170,0.0389648,1.17621,45.7702
696,5.40179e+08,540179,0.0390123,1.17753,45.7705
697,5.40187e+08,540187,0.03999,1.1761,45.7705
698,5.40195e+08,540195,0.0397421,1.17581,45.7688
699,5.40204e+08,540204,0.0397951,1.17591,45.7691
700,5.40212e+08,540212,0.0394169,1.1757,45.769
701,5.4022e+08,540220,0.0390018,1.17559,45.7696
702,5.40229e+08,540229,0.0390308,1.17491,45.7699
703,5.40237e+08,540237,0.0394828,1.1748,45.7704
704,5.40245e+08,540245,0.039396,1.1753,45.7707
705,5.40254e+08,540254,0.0391989,1.17546,45.7696
706,5.40262e+08,540262,0.0384071,1.17483,45.7703
707,5.4027e+08,540270,0.0375278,1.17416,45.7696
708,5.40279e+08,540279,0.037045,1.17362,45.7696
709,5.40287e+08,540287,0.0377382,1.17328,45.7695
710,5.40295e+08,540295,0.0379031,1.17278,45.7691
711,5.40304e+08,540304,0.038379,1.1724,45.7692
712,5.40312e+08,540312,0.0377666,1.17156,45.7687
713,5.4032e+08,540320,0.0378903,1.17091,45.7692
714,5.40329e+08,540329,0.0377205,1.1707,45.7695
715,5.40337e+08,540337,0.0369222,1.17086,45.7696
716,5.40345e+08,540345,0.0371773,1.17057,45.7693
717,5.40354e+08,540354,0.0374606,1.17044,45.7698
718,5.40362e+08,540362,0.0374676,1.17003,45.7702
719,5.4037e+08,540370,0.0433657,1.16908,45.7795
720,5.40379e+08,540379,0.0430071,1.16937,45.7787
721,5.40387e+08,540387,0.042936,1.16892,45.7775
722,5.40395e+08,540395,0.0425728,1.16831,45.7767
723,5.40404e+08,540404,0.0425722,1.16874,45.7762
724,5.40412e+08,540412,0.0432492,1.16891,45.7762
725,5.4042e+08,540420,0.0421533,1.16905,45.7766
726,5.40429e+08,540429,0.0420447,1.16919,45.7776
727,5.40437e+08,540437,0.0428921,1.16875,45.7776
728,5.40445e+08,540445,0.0427182,1.16892,45.7773
729,5.40454e+08,540454,0.0432338,1.16889,45.7771
730,5.40462e+08,540462,0.0430635,1.16834,45.7765
731,5.4047e+08,540470,0.0430906,1.16707,45.7761
732,5.40479e+08,540479,0.0420852,1.1674,45.776
733,5.40487e+08,540487,0.0419223,1.16781,45.7768
734,5.40495e+08,540495,0.0420916,1.1684,45.7759
735,5.40504e+08,540504,0.0428085,1.16715,45.7766
736,5.40512e+08,540512,0.0427431,1.16724,45.7768
737,5.4052e+08,540520,0.0428787,1.16685,45.7785
738,5.40529e+08,540529,0.0434139,1.1667,45.7788
739,5.40537e+08,540537,0.0436738,1.16747,45.7799
740,5.40545e+08,540545,0.0437501,1.16756,45.7792
741,5.40554e+08,540554,0.043269,1.16813,45.7791
742,5.40562e+08,540562,0.0429043,1.16834,45.7788
743,5.4057e+08,540570,0.0427472,1.16791,45.7793
744,5.40579e+08,540579,0.0423955,1.16736,45.7794
745,5.40587e+08,540587,0.0421325,1.16785,45.7792
746,5.40595e+08,540595,0.0415494,1.16712,45.7786
747,5.40604e+08,540604,0.0413447,1.16676,45.7777
748,5.40612e+08,540612,0.0407056,1.16682,45.7772
749,5.4062e+08,540620,0.0412997,1.16567,45.7781
750,5.40629e+08,540629,0.0413219,1.16498,45.7777
751,5.40637e+08,540637,0.0417656,1.16469,45.778
752,5.40645e+08,540645,0.0421921,1.16514,45.778
753,5.40654e+08,540654,0.0420172,1.16514,45.7779
754,5.40662e+08,540662,0.0413577,1.1649,45.7778
755,5.4067e+08,540670,0.0412831,1.16489,45.7774
756,5.40679e+08,540679,0.0419947,1.16545,45.7768
757,5.40687e+08,540687,0.0425663,1.16646,45.778
758,5.40695e+08,540695,0.042523,1.16625,45.7779
759,5.40704e+08,540704,0.0424554,1.16691,45.7776
760,5.40712e+08,540712,0.0413778,1.16671,45.7767
761,5.4072e+08,540720,0.0411705,1.16659,45.7777
762,5.40729e+08,540729,0.0407064,1.16727,45.7776
763,5.40737e+08,540737,0.0409737,1.168,45.7777
764,5.40745e+08,540745,0.0407123,1.16712,45.7777
765,5.40754e+08,540754,0.0403742,1.16681,45.7781
766,5.40762e+08,540762,0.0401113,1.1668,45.7779
767,5.4077e+08,540770,0.0407768,1.16645,45.7784
768,5.40779e+08,540779,0.0409714,1.1671,45.7781
769,5.40787e+08,540787,0.040228,1.16661,45.7783
770,5.40795e+08,540795,0.0397657,1.16601,45.7783
771,5.40804e+08,540804,0.0394311,1.16765,45.7772
772,5.40812e+08,540812,0.0387805,1.16815,45.7768
773,5.4082e+08,540820,0.0386227,1.16794,45.7775
774,5.40829e+08,540829,0.0389946,1.16831,45.7767
775,5.40837e+08,540837,0.0389936,1.16763,45.7766
776,5.40845e+08,540845,0.0392616,1.16881,45.7761
777,5.40854e+08,540854,0.0386801,1.16925,45.7761
778,5.40862e+08,540862,0.0386563,1.16946,45.7755
779,5.4087e+08,540870,0.0387879,1.16979,45.7752
780,5.40879e+08,540879,0.0396696,1.17015,45.7753
781,5.40887e+08,540887,0.0393964,1.17009,45.7744
782,5.40895e+08,540895,0.0393092,1.16978,45.7742
783,5.40904e+08,540904,0.039293,1.16935,45.7739
784,5.40912e+08,540912,0.0385757,1.16914,45.7739
785,5.4092e+08,540920,0.0385846,1.1691,45.7745
786,5.40929e+08,540929,0.0381252,1.17026,45.7738
787,5.40937e+08,540937,0.0379337,1.16994,45.7741
788,5.40945e+08,540945,0.0389122,1.16987,45.7731
789,5.40954e+08,540954,0.0403619,1.17011,45.7725
790,5.40962e+08,540962,0.0404031,1.1699,45.7726
791,5.4097e+08,540970,0.0403087,1.16917,45.7725
792,5.40979e+08,540979,0.0407731,1.16892,45.7723
793,5.40987e+08,540987,0.0399368,1.16839,45.7719
794,5.40995e+08,540995,0.0406115,1.16801,45.772
795,5.41004e+08,541004,0.0402486,1.16838,45.772
796,5.41012e+08,541012,0.0395478,1.16799,45.7714
797,5.4102e+08,541020,0.0395425,1.16892,45.7728
798,5.41029e+08,541029,0.0396764,1.16837,45.7733
799,5.41037e+08,541037,0.0395544,1.16848,45.7731
800,5.41045e+08,541045,0.0397272,1.16843,45.7736
801,5.41054e+08,541054,0.0397288,1.16799,45.7738
802,5.41062e+08,541062,0.0395368,1.16762,45.773
803,5.4107e+08,541070,0.0398651,1.1673,45.7727
804,5.41079e+08,541079,0.0398157,1.16733,45.772
805,5.41087e+08,541087,0.0402484,1.1671,45.7725
806,5.41095e+08,541095,0.0407845,1.16632,45.7722
807,5.41104e+08,541104,0.0411997,1.16603,45.7713
808,5.41112e+08,541112,0.0408127,1.16598,45.7718
809,5.4112e+08,541120,0.0409636,1.16618,45.7733
810,5.41129e+08,541129,0.0407049,1.16634,45.7731
811,5.41137e+08,541137,0.0410439,1.16707,45.7757
812,5.41145e+08,541145,0.041504,1.16758,45.7763
813,5.41154e+08,541154,0.0424978,1.16804,45.7762
814,5.41162e+08,541162,0.0425899,1.16743,45.7757
815,5.4117e+08,541170,0.0419055,1.16765,45.7756
816,5.41179e+08,541179,0.0420122,1.16761,45.7758
817,5.41187e+08,541187,0.0417623,1.16706,45.7752
818,5.41195e+08,541195,0.0411435,1.16683,45.7748
819,5.41204e+08,541204,0.0404826,1.16732,45.7756
820,5.41212e+08,541212,0.040171,1.16752,45.7747
821,5.4122e+08,541220,0.0396522,1.16788,45.7758
822,5.41229e+08,541229,0.0400234,1.16795,45.7754
823,5.41237e+08,541237,0.0400787,1.16734,45.7763
824,5.41245e+08,541245,0.0405099,1.16723,45.7769
825,5.41254e+08,541254,0.0409026,1.16775,45.7775
826,5.41262e+08,541262,0.0410189,1.16741,45.7781
827,5.4127e+08,541270,0.0413229,1.16728,45.777
828,5.41279e+08,541279,0.0405086,1.16655,45.777
829,5.41287e+08,541287,0.040755,1.16668,45.7771
830,5.41295e+08,541295,0.041083,1.16751,45.7761
831,5.41304e+08,541304,0.041621,1.16727,45.7771
832,5.41312e+08,541312,0.0420335,1.1672,45.7758
833,5.4132e+08,541320,0.0425562,1.16744,45.7758
834,5.41329e+08,541329,0.0428619,1.16768,45.7762
835,5.41337e+08,541337,0.0429854,1.16736,45.7768
836,5.41345e+08,541345,0.0428299,1.16755,45.7763
837,5.41354e+08,541354,0.0424963,1.16695,45.776
838,5.41362e+08,541362,0.0418507,1.1675,45.7763
839,5.4137e+08,541370,0.0422429,1.16808,45.7758
840,5.41379e+08,541379,0.0431145,1.1683,45.7755
841,5.41387e+08,541387,0.0432614,1.16846,45.7764
842,5.41395e+08,541395,0.0419836,1.16868,45.7759
843,5.41404e+08,541404,0.0420328,1.16861,45.7749
844,5.41412e+08,541412,0.0417007,1.16769,45.7743
845,5.4142e+08,541420,0.0419323,1.16783,45.7743
846,5.41429e+08,541429,0.0422528,1.16733,45.7741
847,5.41437e+08,541437,0.0424939,1.16681,45.7746
848,5.41445e+08,541445,0.0423714,1.16746,45.7746
849,5.41454e+08,541454,0.0419186,1.16677,45.7739
850,5.41462e+08,541462,0.0419526,1.16766,45.7747
851,5.4147e+08,541470,0.0418641,1.16816,45.7747
852,5.41479e+08,541479,0.0425291,1.16765,45.7742
853,5.41487e+08,541487,0.0417598,1.16787,45.774
854,5.41495e+08,541495,0.0412648,1.16772,45.774
855,5.41504e+08,541504,0.0409106,1.16826,45.7742
856,5.41512e+08,541512,0.0407926,1.1687,45.7734
857,5.4152e+08,541520,0.04078,1.1687,45.7738
858,5.41529e+08,541529,0.0415454,1.16889,45.7733
859,5.41537e+08,541537,0.0413205,1.16884,45.7743
860,5.41545e+08,541545,0.0414227,1.16907,45.7742
861,5.41554e+08,541554,0.0405991,1.16831,45.7731
862,5.41562e+08,541562,0.0402142,1.16817,45.7728
863,5.4157e+08,541570,0.0394964,1.16835,45.7732
864,5.41579e+08,541579,0.0387735,1.16887,45.7736
865,5.41587e+08,541587,0.0386743,1.16867,45.7743
866,5.41595e+08,541595,0.03858,1.16842,45.7746
867,5.41604e+08,541604,0.0380323,1.16791,45.7746
868,5.41612e+08,541612,0.038135,1.16798,45.7747
869,5.4162e+08,541620,0.0376904,1.16768,45.7758
870,5.41629e+08,541629,0.0390603,1.1686,45.7751
871,5.41637e+08,541637,0.039444,1.16854,45.7749
872,5.41645e+08,541645,0.0399672,1.16951,45.7756
873,5.41654e+08,541654,0.0407184,1.16953,45.7761
874,5.41662e+08,541662,0.0404137,1.16992,45.7755
875,5.4167e+08,541670,0.0392934,1.16978,45.775
876,5.41679e+08,541679,0.0391593,1.17039,45.7746
877,5.41687e+08,541687,0.0383421,1.16979,45.775
878,5.41695e+08,541695,0.0391251,1.16978,45.7754
879,5.41704e+08,541704,0.0386502,1.16982,45.775
880,5.41712e+08,541712,0.0386684,1.16976,45.7749
881,5.4172e+08,541720,0.038636,1.17027,45.7748
882,5.41729e+08,541729,0.038637,1.1703,45.775
883,5.41737e+08,541737,0.0386169,1.17002,45.7756
884,5.41745e+08,541745,0.0388938,1.17022,45.775
885,5.41754e+08,541754,0.0392119,1.17007,45.7758
886,5.41762e+08,541762,0.0386689,1.17056,45.7761
887,5.4177e+08,541770,0.039368,1.17077,45.7758
888,5.41779e+08,541779,0.0383853,1.17059,45.7751
889,5.41787e+08,541787,0.0374925,1.17022,45.7757
890,5.41795e+08,541795,0.0373694,1.17043,45.7758
891,5.41804e+08,541804,0.0382088,1.16974,45.7761
892,5.41812e+08,541812,0.0379596,1.17004,45.7762
893,5.4182e+08,541820,0.0376274,1.17018,45.7764
894,5.41829e+08,541829,0.0383317,1.17125,45.7767
895,5.41837e+08,541837,0.0382686,1.17051,45.7767
896,5.41845e+08,541845,0.039108,1.17111,45.7768
897,5.41854e+08,541854,0.0392375,1.17186,45.7763
898,5.41862e+08,541862,0.0397912,1.17163,45.7759
899,5.4187e+08,541870,0.0394609,1.17117,45.7762
900,5.41879e+08,541879,0.039735,1.17047,45.7756
901,5.41887e+08,541887,0.0403673,1.16988,45.7765
902,5.41895e+08,541895,0.0401981,1.16996,45.7761
903,5.41904e+08,541904,0.0403942,1.17022,45.7769
904,5.41912e+08,541912,0.040249,1.17024,45.7772
905,5.4192e+08,541920,0.0405381,1.17046,45.7768
906,5.41929e+08,541929,0.0406048,1.16992,45.777
907,5.41937e+08,541937,0.040598,1.16913,45.7764
908,5.41945e+08,541945,0.0403065,1.16902,45.7764
909,5.41954e+08,541954,0.0405238,1.16883,45.7765
910,5.41962e+08,541962,0.0409852,1.16894,45.776
911,5.4197e+08,541970,0.0418086,1.16885,45.7761
912,5.41979e+08,541979,0.0429708,1.16898,45.7759
913,5.41987e+08,541987,0.0429138,1.16863,45.7757
914,5.41995e+08,541995,0.0428947,1.16829,45.7757
915,5.42004e+08,542004,0.0434296,1.16745,45.7762
916,5.42012e+08,542012,0.0437172,1.16732,45.7768
917,5.4202e+08,542020,0.0436452,1.16833,45.777
918,5.42029e+08,542029,0.0435092,1.16807,45.7769
919,5.42037e+08,542037,0.042244,1.16828,45.7774
920,5.42045e+08,542045,0.0430659,1.16904,45.7767
921,5.42054e+08,542054,0.0431752,1.16797,45.7777
922,5.42062e+08,542062,0.0428057,1.16838,45.7792
923,5.4207e+08,542070,0.042606,1.16948,45.7794
924,5.42079e+08,542079,0.0427708,1.16954,45.7795
925,5.42087e+08,542087,0.0425436,1.16954,45.7803
926,5.42095e+08,542095,0.0426967,1.16962,45.781
927,5.42104e+08,542104,0.042293,1.16983,45.7812
928,5.42112e+08,542112,0.042459,1.16904,45.7806
929,5.4212e+08,542120,0.0424289,1.16867,45.7809
930,5.42129e+08,542129,0.0428355,1.16801,45.7803
931,5.42137e+08,542137,0.042468,1.16781,45.7798
932,5.42145e+08,542145,0.0423862,1.16838,45.7791
933,5.42154e+08,542154,0.0435445,1.1687,45.7794
934,5.42162e+08,542162,0.0433516,1.16895,45.7793
935,5.4217e+08,542170,0.0431765,1.16962,45.7788
936,5.42179e+08,542179,0.0433875,1.1706,45.7788
937,5.42187e+08,542187,0.043443,1.17077,45.7786
938,5.42195e+08,542195,0.0436608,1.1705,45.7793
939,5.42204e+08,542204,0.044084,1.17061,45.7801
940,5.42212e+08,542212,0.0435552,1.16984,45.7798
941,5.4222e+08,542220,0.0429097,1.17033,45.7794
942,5.42229e+08,542229,0.0422317,1.17052,45.7801
943,5.42237e+08,542237,0.04225,1.17079,45.7806
944,5.42245e+08,542245,0.0422841,1.1709,45.7802
945,5.42254e+08,542254,0.0432112,1.1708,45.781
946,5.42262e+08,542262,0.0440279,1.17045,45.781
947,5.4227e+08,542270,0.0442619,1.17001,45.7802
948,5.42279e+08,542279,0.0443532,1.16972,45.7787
949,5.42287e+08,542287,0.0442829,1.16919,45.7794
950,5.42295e+08,542295,0.0436528,1.16912,45.7785
951,5.42304e+08,542304,0.0436643,1.16905,45.7777
952,5.42312e+08,542312,0.04408,1.1701,45.7771
953,5.4232e+08,542320,0.0434119,1.17019,45.7773
954,5.42329e+08,542329,0.0431198,1.17025,45.7766
955,5.42337e+08,542337,0.0428252,1.17017,45.7764
956,5.42345e+08,542345,0.0434578,1.17021,45.7765
957,5.42354e+08,542354,0.0431473,1.16982,45.7761
958,5.42362e+08,542362,0.043433,1.17,45.7764
959,5.4237e+08,542370,0.042782,1.1682,45.7869
960,5.42379e+08,542379,0.0420352,1.16875,45.7871
961,5.42387e+08,542387,0.0418739,1.16944,45.7876
962,5.42395e+08,542395,0.0424738,1.16937,45.7875
963,5.42404e+08,542404,0.0413955,1.16955,45.7868
964,5.42412e+08,542412,0.040816,1.169,45.787
965,5.4242e+08,542420,0.0409224,1.16993,45.7867
966,5.42429e+08,542429,0.0417796,1.17067,45.7876
967,5.42437e+08,542437,0.0422498,1.17013,45.7873
968,5.42445e+08,542445,0.042319,1.16958,45.7864
969,5.42454e+08,542454,0.0419198,1.16962,45.7852
970,5.42462e+08,542462,0.0412355,1.16981,45.7855
971,5.4247e+08,542470,0.0401381,1.17046,45.7851
972,5.42479e+08,542479,0.0405689,1.17071,45.7857
973,5.42487e+08,542487,0.0404896,1.1709,45.7861
974,5.42495e+08,542495,0.0400289,1.17042,45.7873
975,5.42504e+08,542504,0.039023,1.17116,45.7873
976,5.42512e+08,542512,0.0386257,1.1712,45.7877
977,5.4252e+08,542520,0.0388085,1.17031,45.7895
978,5.42529e+08,542529,0.0391443,1.16959,45.7888
979,5.42537e+08,542537,0.0390475,1.16965,45.7888
980,5.42545e+08,542545,0.0382393,1.17003,45.7892
981,5.42554e+08,542554,0.0382141,1.16982,45.789
982,5.42562e+08,542562,0.0383147,1.16926,45.789
983,5.4257e+08,542570,0.038298,1.16878,45.79
984,5.42579e+08,542579,0.0382838,1.16889,45.7903
985,5.42587e+08,542587,0.0377722,1.16853,45.7906
986,5.42595e+08,542595,0.0374235,1.16881,45.7905
987,5.42604e+08,542604,0.0376831,1.1693,45.791
988,5.42612e+08,542612,0.0377048,1.16829,45.7912
989,5.4262e+08,542620,0.0385583,1.16739,45.7925
990,5.42629e+08,542629,0.0380926,1.16704,45.7923
991,5.42637e+08,542637,0.0376998,1.16698,45.7932
992,5.42645e+08,542645,0.0375823,1.16718,45.7933
993,5.42654e+08,542654,0.0376197,1.16751,45.7933
994,5.42662e+08,542662,0.0378366,1.16718,45.7928
995,5.4267e+08,542670,0.0379127,1.1666,45.7935
996,5.42679e+08,542679,0.0378321,1.16689,45.7936
997,5.42687e+08,542687,0.0379013,1.16679,45.7934
998,5.42695e+08,542695,0.0367396,1.16703,45.7934
999,5.42704e+08,542704,0.0367069,1.16719,45.7937
1000,5.42712e+08,542712,0.0364263,1.16718,45.7931
1001,5.4272e+08,542720,0.035934,1.16653,45.7929
1002,5.42729e+08,542729,0.035841,1.16646,45.7928
1003,5.42737e+08,542737,0.0361919,1.16525,45.7935
1004,5.42745e+08,542745,0.0357882,1.16496,45.7927
1005,5.42754e+08,542754,0.0352969,1.16527,45.7923
1006,5.42762e+08,542762,0.036403,1.16466,45.7918
1007,5.4277e+08,542770,0.0354736,1.16362,45.792
1008,5.42779e+08,542779,0.0351704,1.1631,45.7923
1009,5.42787e+08,542787,0.033871,1.16267,45.7928
1010,5.42795e+08,542795,0.0338133,1.16256,45.7925
1011,5.42804e+08,542804,0.0336906,1.16262,45.792
1012,5.42812e+08,542812,0.0335887,1.1622,45.7923
1013,5.4282e+08,542820,0.0331043,1.16142,45.7928
1014,5.42829e+08,542829,0.0324859,1.16133,45.7926
1015,5.42837e+08,542837,0.032774,1.16113,45.7929
1016,5.42845e+08,542845,0.0322301,1.16166,45.7924
1017,5.42854e+08,542854,0.0320191,1.16161,45.7923
1018,5.42862e+08,542862,0.0320654,1.162,45.7919
1019,5.4287e+08,542870,0.03253,1.1615,45.7915
1020,5.42879e+08,542879,0.0329014,1.16122,45.7917
1021,5.42887e+08,542887,0.0332562,1.16116,45.7914
1022,5.42895e+08,542895,0.0323622,1.16072,45.7916
1023,5.42904e+08,542904,0.0330231,1.16105,45.792
1024,5.42912e+08,542912,0.0336128,1.16179,45.7921
1025,5.4292e+08,542920,0.0336514,1.16017,45.7928
1026,5.42929e+08,542929,0.0333741,1.16058,45.7923
1027,5.42937e+08,542937,0.0328039,1.16077,45.7928
1028,5.42945e+08,542945,0.0323814,1.16112,45.7931
1029,5.42954e+08,542954,0.0324014,1.16123,45.7927
1030,5.42962e+08,542962,0.0324214,1.16158,45.7929
1031,5.4297e+08,542970,0.0323395,1.16138,45.7926
1032,5.42979e+08,542979,0.0316385,1.16188,45.7922
1033,5.42987e+08,542987,0.0321293,1.16177,45.7917
1034,5.42995e+08,542995,0.0327066,1.16077,45.7915
1035,5.43004e+08,543004,0.032479,1.16168,45.7914
1036,5.43012e+08,543012,0.0323679,1.16167,45.7915
1037,5.4302e+08,543020,0.0328144,1.16135,45.7918
1038,5.43029e+08,543029,0.0334048,1.16107,45.7916
1039,5.43037e+08,543037,0.0333265,1.16143,45.7917
1040,5.43045e+08,543045,0.0331177,1.16189,45.7921
1041,5.43054e+08,543054,0.0333764,1.16187,45.7926
1042,5.43062e+08,543062,0.0335206,1.16231,45.793
1043,5.4307e+08,543070,0.0331748,1.16265,45.7922
1044,5.43079e+08,543079,0.0320994,1.16215,45.792
1045,5.43087e+08,543087,0.0330911,1.16183,45.7917
1046,5.43095e+08,543095,0.0330266,1.16136,45.7911
1047,5.43104e+08,543104,0.0326691,1.16056,45.7911
1048,5.43112e+08,543112,0.0325861,1.15969,45.7915
1049,5.4312e+08,543120,0.0325239,1.15932,45.7916
1050,5.43129e+08,543129,0.0323426,1.15858,45.7907
1051,5.43137e+08,543137,0.0319953,1.15903,45.7905
1052,5.43145e+08,543145,0.0312406,1.15987,45.7899
1053,5.43154e+08,543154,0.0313642,1.15875,45.7898
1054,5.43162e+08,543162,0.0309351,1.15875,45.7901
1055,5.4317e+08,543170,0.0313917,1.15896,45.7896
1056,5.43179e+08,543179,0.0312458,1.15898,45.7895
1057,5.43187e+08,543187,0.0304753,1.15992,45.7898
1058,5.43195e+08,543195,0.0303348,1.1602,45.7893
1059,5.43204e+08,543204,0.0305392,1.1594,45.7893
1060,5.43212e+08,543212,0.0312544,1.15954,45.7895
1061,5.4322e+08,543220,0.0313684,1.15942,45.7891
1062,5.43229e+08,543229,0.0312544,1.15922,45.7886
1063,5.43237e+08,543237,0.0308679,1.15905,45.7886
1064,5.43245e+08,543245,0.0313693,1.15874,45.7883
1065,5.43254e+08,543254,0.0314675,1.15893,45.7881
1066,5.43262e+08,543262,0.0310324,1.1584,45.7885
1067,5.4327e+08,543270,0.0303387,1.15806,45.7882
1068,5.43279e+08,543279,0.0303398,1.15798,45.7878
1069,5.43287e+08,543287,0.0300926,1.1582,45.7881
1070,5.43295e+08,543295,0.0302274,1.15753,45.7881
1071,5.43304e+08,543304,0.0306614,1.15781,45.7887
1072,5.43312e+08,543312,0.0297349,1.15735,45.7887
1073,5.4332e+08,543320,0.0301616,1.15689,45.791
1074,5.43329e+08,543329,0.0302164,1.15759,45.7907
1075,5.43337e+08,543337,0.0300609,1.15812,45.791
1076,5.43345e+08,543345,0.029199,1.15843,45.791
1077,5.43354e+08,543354,0.0289586,1.15848,45.7903
1078,5.43362e+08,543362,0.0286871,1.15696,45.7901
1079,5.4337e+08,543370,0.0285242,1.15675,45.79
1080,5.43379e+08,543379,0.027539,1.15695,45.7897
1081,5.43387e+08,543387,0.0276346,1.15832,45.7895
1082,5.43395e+08,543395,0.0276569,1.15794,45.7889
1083,5.43404e+08,543404,0.0278207,1.15765,45.7891
1084,5.43412e+08,543412,0.028122,1.15732,45.7895
1085,5.4342e+08,543420,0.0287144,1.15833,45.7904
1086,5.43429e+08,543429,0.0281803,1.15876,45.7902
1087,5.43437e+08,543437,0.0284854,1.15872,45.7907
1088,5.43445e+08,543445,0.028616,1.15919,45.7906
1089,5.43454e+08,543454,0.0284155,1.15806,45.7911
1090,5.43462e+08,543462,0.0282656,1.15812,45.7906
1091,5.4347e+08,543470,0.0286201,1.15881,45.7901
1092,5.43479e+08,543479,0.0293685,1.15941,45.7908
1093,5.43487e+08,543487,0.0290423,1.15913,45.7919
1094,5.43495e+08,543495,0.029009,1.16059,45.7912
1095,5.43504e+08,543504,0.0293908,1.16063,45.7903
1096,5.43512e+08,543512,0.0297057,1.16081,45.7909
1097,5.4352e+08,543520,0.0297449,1.16146,45.7913
1098,5.43529e+08,543529,0.0290898,1.16078,45.7912
1099,5.43537e+08,543537,0.02898,1.1608,45.7911
1100,5.43545e+08,543545,0.0290134,1.16097,45.7908
1101,5.43554e+08,543554,0.0286919,1.16104,45.7904
1102,5.43562e+08,543562,0.0292624,1.16127,45.7905
1103,5.4357e+08,543570,0.0288469,1.16079,45.7905
1104,5.43579e+08,543579,0.028021,1.16167,45.791
1105,5.43587e+08,543587,0.0283814,1.16163,45.7912
1106,5.43595e+08,543595,0.0287334,1.1618,45.7916
1107,5.43604e+08,543604,0.0292328,1.16096,45.7918
1108,5.43612e+08,543612,0.0283818,1.16127,45.7918
1109,5.4362e+08,543620,0.0285245,1.16144,45.7923
1110,5.43629e+08,543629,0.0281264,1.1628,45.7919
1111,5.43637e+08,543637,0.0279744,1.16294,45.7919
1112,5.43645e+08,543645,0.027274,1.16293,45.7916
1113,5.43654e+08,543654,0.027238,1.16275,45.7909
1114,5.43662e+08,543662,0.0274618,1.16285,45.7909
1115,5.4367e+08,543670,0.0275533,1.16227,45.7907
1116,5.43679e+08,543679,0.0267044,1.16168,45.7894
1117,5.43687e+08,543687,0.0263074,1.16138,45.7887
1118,5.43695e+08,543695,0.0259881,1.16081,45.7883
1119,5.43704e+08,543704,0.025856,1.16097,45.7884
1120,5.43712e+08,543712,0.0251866,1.16024,45.789
1121,5.4372e+08,543720,0.0248272,1.16081,45.7899
1122,5.43729e+08,543729,0.0243186,1.16105,45.789
1123,5.43737e+08,543737,0.023555,1.16121,45.7887
1124,5.43745e+08,543745,0.0236612,1.16121,45.789
1125,5.43754e+08,543754,0.0238114,1.16154,45.7891
1126,5.43762e+08,543762,0.0231279,1.16065,45.7886
1127,5.4377e+08,543770,0.0225238,1.16092,45.7886
1128,5.43779e+08,543779,0.0222889,1.16051,45.7892
1129,5.43787e+08,543787,0.022623,1.15976,45.7889
1130,5.43795e+08,543795,0.0222446,1.15976,45.7888
1131,5.43804e+08,543804,0.0223304,1.15927,45.7888
1132,5.43812e+08,543812,0.0222948,1.15953,45.7881
1133,5.4382e+08,543820,0.0218223,1.15971,45.787
1134,5.43829e+08,543829,0.022565,1.16006,45.7862
1135,5.43837e+08,543837,0.0225993,1.15952,45.7864
1136,5.43845e+08,543845,0.0220643,1.15946,45.7859
1137,5.43854e+08,543854,0.0223008,1.15914,45.7851
1138,5.43862e+08,543862,0.0218358,1.15884,45.7851
1139,5.4387e+08,543870,0.0217028,1.15902,45.7861
1140,5.43879e+08,543879,0.0221369,1.15866,45.7859
1141,5.43887e+08,543887,0.0217825,1.15892,45.7868
1142,5.43895e+08,543895,0.0211981,1.15948,45.7862
1143,5.43904e+08,543904,0.020936,1.15935,45.7874
1144,5.43912e+08,543912,0.0209934,1.15994,45.7882
1145,5.4392e+08,543920,0.0209807,1.16009,45.7889
1146,5.43929e+08,543929,0.022025,1.15954,45.7891
1147,5.43937e+08,543937,0.0219254,1.1599,45.789
1148,5.43945e+08,543945,0.022126,1.16072,45.7884
1149,5.43954e+08,543954,0.022724,1.16061,45.7884
1150,5.43962e+08,543962,0.0220699,1.16037,45.788
1151,5.4397e+08,543970,0.0218458,1.16044,45.7887
1152,5.43979e+08,543979,0.0209591,1.15973,45.7882
1153,5.43987e+08,543987,0.0208871,1.15963,45.7883
1154,5.43995e+08,543995,0.0200028,1.1604,45.7887
1155,5.44004e+08,544004,0.019665,1.16097,45.7892
1156,5.44012e+08,544012,0.0196455,1.16068,45.7897
1157,5.4402e+08,544020,0.0195468,1.16138,45.7913
1158,5.44029e+08,544029,0.0195057,1.16195,45.7913
1159,5.44037e+08,544037,0.0197531,1.16177,45.7908
1160,5.44045e+08,544045,0.018603,1.16248,45.7908
1161,5.44054e+08,544054,0.018789,1.16269,45.7915
1162,5.44062e+08,544062,0.0191221,1.16256,45.7911
1163,5.4407e+08,544070,0.0194903,1.16289,45.7912
1164,5.44079e+08,544079,0.0196931,1.16282,45.7907
1165,5.44087e+08,544087,0.0200409,1.16254,45.791
1166,5.44095e+08,544095,0.0195434,1.16183,45.7907
1167,5.44104e+08,544104,0.0194584,1.16086,45.7903
1168,5.44112e+08,544112,0.018926,1.16155,45.7904
1169,5.4412e+08,544120,0.0179509,1.16219,45.7912
1170,5.44129e+08,544129,0.0179227,1.16252,45.7909
1171,5.44137e+08,544137,0.0181733,1.16241,45.7907
1172,5.44145e+08,544145,0.0179931,1.16325,45.7904
1173,5.44154e+08,544154,0.0173564,1.16228,45.7894
1174,5.44162e+08,544162,0.0166167,1.16238,45.7892
1175,5.4417e+08,544170,0.0161736,1.16229,45.7887
1176,5.44179e+08,544179,0.0163147,1.16237,45.7879
1177,5.44187e+08,544187,0.0162894,1.16198,45.789
1178,5.44195e+08,544195,0.015622,1.16165,45.7893
1179,5.44204e+08,544204,0.016263,1.16267,45.7896
1180,5.44212e+08,544212,0.0151481,1.16282,45.79
1181,5.4422e+08,544220,0.0155581,1.16331,45.7905
1182,5.44229e+08,544229,0.0158986,1.16354,45.7904
1183,5.44237e+08,544237,0.0158682,1.16245,45.7908
1184,5.44245e+08,544245,0.0168325,1.16327,45.7914
1185,5.44254e+08,544254,0.0165103,1.16305,45.7921
1186,5.44262e+08,544262,0.0160595,1.16367,45.7921
1187,5.4427e+08,544270,0.0175561,1.16316,45.7919
1188,5.44279e+08,544279,0.0173909,1.16283,45.7919
1189,5.44287e+08,544287,0.0170505,1.16379,45.7924
1190,5.44295e+08,544295,0.0169365,1.16234,45.792
1191,5.44304e+08,544304,0.0169768,1.16204,45.7929
1192,5.44312e+08,544312,0.0169867,1.16259,45.7932
1193,5.4432e+08,544320,0.016767,1.16265,45.794
1194,5.44329e+08,544329,0.0168806,1.1628,45.7937
1195,5.44337e+08,544337,0.0172147,1.16196,45.7943
1196,5.44345e+08,544345,0.0179387,1.16139,45.7947
1197,5.44354e+08,544354,0.0188682,1.16121,45.7951
1198,5.44362e+08,544362,0.0195114,1.16097,45.795
1199,5.4437e+08,544370,0.0338493,1.16487,45.8088
1200,5.44379e+08,544379,0.0331704,1.16388,45.8084
1201,5.44387e+08,544387,0.0333596,1.16385,45.8092
1202,5.44395e+08,544395,0.0332231,1.16418,45.8094
1203,5.44404e+08,544404,0.0337748,1.16441,45.8102
1204,5.44412e+08,544412,0.0337246,1.16526,45.81
1205,5.4442e+08,544420,0.0338077,1.16541,45.8103
1206,5.44429e+08,544429,0.0328711,1.16541,45.8107
1207,5.44437e+08,544437,0.0330462,1.16507,45.812
1208,5.44445e+08,544445,0.0326088,1.16509,45.8107
1209,5.44454e+08,544454,0.0329066,1.16522,45.8102
1210,5.44462e+08,544462,0.032033,1.16462,45.8102
1211,5.4447e+08,544470,0.0321311,1.16543,45.8097
1212,5.44479e+08,544479,0.032514,1.16635,45.809
1213,5.44487e+08,544487,0.0321036,1.16596,45.8076
1214,5.44495e+08,544495,0.031446,1.16535,45.8075
1215,5.44504e+08,544504,0.0316681,1.16558,45.8083
1216,5.44512e+08,544512,0.0314489,1.16519,45.8088
1217,5.4452e+08,544520,0.0312549,1.16488,45.8084
1218,5.44529e+08,544529,0.0311674,1.16488,45.8087
1219,5.44537e+08,544537,0.0302267,1.16424,45.8089
1220,5.44545e+08,544545,0.02968,1.16336,45.8083
1221,5.44554e+08,544554,0.0295265,1.16318,45.8082
1222,5.44562e+08,544562,0.0289468,1.16321,45.808
1223,5.4457e+08,544570,0.0290119,1.16308,45.8081
1224,5.44579e+08,544579,0.0281284,1.16333,45.8085
1225,5.44587e+08,544587,0.0272153,1.16338,45.8083
1226,5.44595e+08,544595,0.0268363,1.16246,45.8083
1227,5.44604e+08,544604,0.0272473,1.16297,45.8094
1228,5.44612e+08,544612,0.0276904,1.16371,45.8106
1229,5.4462e+08,544620,0.0283993,1.16424,45.8109
1230,5.44629e+08,544629,0.0279343,1.16442,45.811
1231,5.44637e+08,544637,0.0276166,1.16339,45.8105
1232,5.44645e+08,544645,0.0271425,1.16381,45.8105
1233,5.44654e+08,544654,0.0269649,1.16378,45.8106
1234,5.44662e+08,544662,0.0263673,1.16314,45.8102
1235,5.4467e+08,544670,0.0253169,1.16297,45.8114
1236,5.44679e+08,544679,0.0254331,1.16263,45.8117
1237,5.44687e+08,544687,0.025187,1.16186,45.812
1238,5.44695e+08,544695,0.0258269,1.16218,45.8114
1239,5.44704e+08,544704,0.0253992,1.16306,45.8124
1240,5.44712e+08,544712,0.0254037,1.16381,45.8122
1241,5.4472e+08,544720,0.0261913,1.16354,45.8128
1242,5.44729e+08,544729,0.0261089,1.1638,45.8125
1243,5.44737e+08,544737,0.0258524,1.16422,45.8127
1244,5.44745e+08,544745,0.0257997,1.16431,45.8125
1245,5.44754e+08,544754,0.0253729,1.16389,45.8125
1246,5.44762e+08,544762,0.0258494,1.16311,45.8131
1247,5.4477e+08,544770,0.0248093,1.16222,45.8132
1248,5.44779e+08,544779,0.0243302,1.16239,45.8126
1249,5.44787e+08,544787,0.0241046,1.1624,45.8124
1250,5.44795e+08,544795,0.0240422,1.16217,45.8121
1251,5.44804e+08,544804,0.0243629,1.16177,45.8123
1252,5.44812e+08,544812,0.0239907,1.16146,45.812
1253,5.4482e+08,544820,0.023961,1.16068,45.8132
1254,5.44829e+08,544829,0.0237658,1.16019,45.8127
1255,5.44837e+08,544837,0.0233625,1.1613,45.8128
1256,5.44845e+08,544845,0.0234346,1.16148,45.8126
1257,5.44854e+08,544854,0.0235845,1.16092,45.8126
1258,5.44862e+08,544862,0.0235115,1.16152,45.8124
1259,5.4487e+08,544870,0.0245369,1.16128,45.8135
1260,5.44879e+08,544879,0.0248784,1.16079,45.8134
1261,5.44887e+08,544887,0.0243576,1.1596,45.8133
1262,5.44895e+08,544895,0.0246705,1.15967,45.8128
1263,5.44904e+08,544904,0.0250346,1.15893,45.8128
1264,5.44912e+08,544912,0.0254658,1.15836,45.8122
1265,5.4492e+08,544920,0.0258404,1.15966,45.8122
1266,5.44929e+08,544929,0.0258561,1.16044,45.8124
1267,5.44937e+08,544937,0.0253079,1.16118,45.8129
1268,5.44945e+08,544945,0.0252601,1.16182,45.8137
1269,5.44954e+08,544954,0.025171,1.16221,45.8144
1270,5.44962e+08,544962,0.0256214,1.16274,45.8146
1271,5.4497e+08,544970,0.0258768,1.1634,45.8151
1272,5.44979e+08,544979,0.0260354,1.16344,45.8158
1273,5.44987e+08,544987,0.0261669,1.16331,45.8164
1274,5.44995e+08,544995,0.0258417,1.16296,45.8162
1275,5.45004e+08,545004,0.0254378,1.16385,45.8169
1276,5.45012e+08,545012,0.0259363,1.1631,45.8163
1277,5.4502e+08,545020,0.0252519,1.16347,45.8163
1278,5.45029e+08,545029,0.0248539,1.16259,45.8166
1279,5.45037e+08,545037,0.0244616,1.16324,45.8167
1280,5.45045e+08,545045,0.0246004,1.16305,45.8178
1281,5.45054e+08,545054,0.0253122,1.16375,45.8184
1282,5.45062e+08,545062,0.025381,1.16399,45.8188
1283,5.4507e+08,545070,0.0251395,1.16401,45.8188
1284,5.45079e+08,545079,0.0255039,1.16497,45.8189
1285,5.45087e+08,545087,0.0244481,1.16557,45.8201
1286,5.45095e+08,545095,0.023902,1.16578,45.8198
1287,5.45104e+08,545104,0.0239547,1.16509,45.8189
1288,5.45112e+08,545112,0.0235141,1.1654,45.8186
1289,5.4512e+08,545120,0.0232232,1.16529,45.8188
1290,5.45129e+08,545129,0.0239922,1.16458,45.8186
1291,5.45137e+08,545137,0.0245886,1.16509,45.8189
1292,5.45145e+08,545145,0.0249806,1.1656,45.8196
1293,5.45154e+08,545154,0.0251921,1.1666,45.8193
1294,5.45162e+08,545162,0.0256022,1.16711,45.8194
1295,5.4517e+08,545170,0.0254072,1.16678,45.8195
1296,5.45179e+08,545179,0.0261792,1.16676,45.8201
1297,5.45187e+08,545187,0.0261838,1.16633,45.8208
1298,5.45195e+08,545195,0.0251829,1.16639,45.8205
1299,5.45204e+08,545204,0.0253455,1.16709,45.82
1300,5.45212e+08,545212,0.0244689,1.16761,45.8207
1301,5.4522e+08,545220,0.0237462,1.16747,45.8204
1302,5.45229e+08,545229,0.024003,1.16722,45.8202
1303,5.45237e+08,545237,0.024178,1.16644,45.8212
1304,5.45245e+08,545245,0.0243139,1.1661,45.8212
1305,5.45254e+08,545254,0.0241072,1.16607,45.8215
1306,5.45262e+08,545262,0.024826,1.16633,45.8214
1307,5.4527e+08,545270,0.0251897,1.16652,45.8211
1308,5.45279e+08,545279,0.024762,1.16703,45.8216
1309,5.45287e+08,545287,0.0250282,1.16748,45.8215
1310,5.45295e+08,545295,0.0244929,1.16772,45.8221
1311,5.45304e+08,545304,0.0244537,1.16819,45.8228
1312,5.45312e+08,545312,0.0244244,1.16797,45.8228
1313,5.4532e+08,545320,0.0237162,1.16759,45.8229
1314,5.45329e+08,545329,0.0239171,1.16749,45.8227
1315,5.45337e+08,545337,0.0240389,1.1679,45.8224
1316,5.45345e+08,545345,0.0245747,1.16796,45.822
1317,5.45354e+08,545354,0.0245117,1.16765,45.8229
1318,5.45362e+08,545362,0.0242887,1.16767,45.8225
1319,5.4537e+08,545370,0.0248712,1.1686,45.8231
1320,5.45379e+08,545379,0.024901,1.16922,45.823
1321,5.45387e+08,545387,0.0259642,1.16838,45.8229
1322,5.45395e+08,545395,0.0261752,1.16841,45.8229
1323,5.45404e+08,545404,0.0256605,1.16836,45.8221
1324,5.45412e+08,545412,0.0261787,1.16887,45.8217
1325,5.4542e+08,545420,0.0275092,1.16797,45.8223
1326,5.45429e+08,545429,0.0279743,1.16815,45.8226
1327,5.45437e+08,545437,0.0276606,1.16775,45.8229
1328,5.45445e+08,545445,0.0269386,1.16744,45.823
1329,5.45454e+08,545454,0.0267298,1.16757,45.8232
1330,5.45462e+08,545462,0.0264227,1.16822,45.8225
1331,5.4547e+08,545470,0.0270265,1.16824,45.8223
1332,5.45479e+08,545479,0.0275308,1.16786,45.8215
1333,5.45487e+08,545487,0.0276928,1.16726,45.822
1334,5.45495e+08,545495,0.0271956,1.1676,45.8219
1335,5.45504e+08,545504,0.0280483,1.16703,45.8215
1336,5.45512e+08,545512,0.0280447,1.1668,45.8224
1337,5.4552e+08,545520,0.0274481,1.16621,45.8226
1338,5.45529e+08,545529,0.026841,1.16658,45.8229
1339,5.45537e+08,545537,0.026622,1.16613,45.8226
1340,5.45545e+08,545545,0.0269978,1.16644,45.8223
1341,5.45554e+08,545554,0.0269206,1.16686,45.8219
1342,5.45562e+08,545562,0.0266639,1.16698,45.8215
1343,5.4557e+08,545570,0.0262843,1.16676,45.8213
1344,5.45579e+08,545579,0.0261009,1.16659,45.8216
1345,5.45587e+08,545587,0.026514,1.16662,45.8211
1346,5.45595e+08,545595,0.0259794,1.16683,45.8204
1347,5.45604e+08,545604,0.0256155,1.16728,45.8202
1348,5.45612e+08,545612,0.0253063,1.16682,45.8191
1349,5.4562e+08,545620,0.025132,1.16644,45.8197
1350,5.45629e+08,545629,0.025765,1.1669,45.8196
1351,5.45637e+08,545637,0.0259343,1.16646,45.8191
1352,5.45645e+08,545645,0.0257435,1.16747,45.8193
1353,5.45654e+08,545654,0.025062,1.16819,45.8204
1354,5.45662e+08,545662,0.0252169,1.16729,45.8207
1355,5.4567e+08,545670,0.0253508,1.16674,45.8198
1356,5.45679e+08,545679,0.0250265,1.16714,45.8192
1357,5.45687e+08,545687,0.024727,1.16683,45.8193
1358,5.45695e+08,545695,0.024307,1.16762,45.8197
1359,5.45704e+08,545704,0.0245069,1.16667,45.8193
1360,5.45712e+08,545712,0.0245195,1.16724,45.8197
1361,5.4572e+08,545720,0.023808,1.16748,45.8194
1362,5.45729e+08,545729,0.0236894,1.16684,45.819
1363,5.45737e+08,545737,0.0244015,1.16729,45.819
1364,5.45745e+08,545745,0.0239014,1.16676,45.819
1365,5.45754e+08,545754,0.0231487,1.16662,45.82
1366,5.45762e+08,545762,0.022944,1.16596,45.8192
1367,5.4577e+08,545770,0.0234307,1.16655,45.8183
1368,5.45779e+08,545779,0.0232149,1.16724,45.819
1369,5.45787e+08,545787,0.0224231,1.16706,45.8188
1370,5.45795e+08,545795,0.0220216,1.16689,45.8187
1371,5.45804e+08,545804,0.0216089,1.1672,45.8195
1372,5.45812e+08,545812,0.0213714,1.16748,45.8197
1373,5.4582e+08,545820,0.0217466,1.16728,45.8192
1374,5.45829e+08,545829,0.0220122,1.16819,45.8196
1375,5.45837e+08,545837,0.0217738,1.16794,45.8199
1376,5.45845e+08,545845,0.0219472,1.16826,45.8192
1377,5.45854e+08,545854,0.0220496,1.16795,45.819
1378,5.45862e+08,545862,0.0209076,1.16751,45.8187
1379,5.4587e+08,545870,0.0203757,1.16865,45.8177
1380,5.45879e+08,545879,0.0195993,1.16846,45.8173
1381,5.45887e+08,545887,0.019759,1.16808,45.817
1382,5.45895e+08,545895,0.0194081,1.16839,45.8175
1383,5.45904e+08,545904,0.0203435,1.16864,45.8178
1384,5.45912e+08,545912,0.0199054,1.16885,45.8177
1385,5.4592e+08,545920,0.0198498,1.16871,45.8176
1386,5.45929e+08,545929,0.019415,1.16952,45.8174
1387,5.45937e+08,545937,0.0196705,1.16942,45.8184
1388,5.45945e+08,545945,0.0198992,1.16885,45.8189
1389,5.45954e+08,545954,0.0197955,1.16827,45.8185
1390,5.45962e+08,545962,0.0201656,1.1685,45.8179
1391,5.4597e+08,545970,0.0192001,1.16876,45.8178
1392,5.45979e+08,545979,0.0190391,1.16871,45.818
1393,5.45987e+08,545987,0.0193711,1.16838,45.818
1394,5.45995e+08,545995,0.0191113,1.16852,45.8185
1395,5.46004e+08,546004,0.0187734,1.16896,45.818
1396,5.46012e+08,546012,0.0190713,1.16881,45.8189
1397,5.4602e+08,546020,0.0187922,1.16895,45.8191
1398,5.46029e+08,546029,0.0184452,1.16963,45.8195
1399,5.46037e+08,546037,0.0180114,1.1695,45.8198
1400,5.46045e+08,546045,0.0184566,1.16976,45.8191
1401,5.46054e+08,546054,0.0184277,1.16973,45.8187
1402,5.46062e+08,546062,0.0178941,1.17008,45.8183
1403,5.4607e+08,546070,0.0180505,1.1708,45.8174
1404,5.46079e+08,546079,0.0180196,1.17039,45.817
1405,5.46087e+08,546087,0.0180248,1.17005,45.8161
1406,5.46095e+08,546095,0.0175104,1.17093,45.8153
1407,5.46104e+08,546104,0.0182837,1.17135,45.8157
1408,5.46112e+08,546112,0.018,1.17209,45.8158
1409,5.4612e+08,546120,0.0179772,1.17234,45.8161
1410,5.46129e+08,546129,0.0173096,1.17238,45.8156
1411,5.46137e+08,546137,0.0166349,1.17164,45.8165
1412,5.46145e+08,546145,0.0168601,1.17068,45.8165
1413,5.46154e+08,546154,0.0165936,1.17103,45.8172
1414,5.46162e+08,546162,0.0165367,1.17158,45.8167
1415,5.4617e+08,546170,0.0166303,1.17203,45.8153
1416,5.46179e+08,546179,0.0166821,1.17189,45.8163
1417,5.46187e+08,546187,0.0167212,1.17102,45.8164
1418,5.46195e+08,546195,0.0162052,1.17104,45.8163
1419,5.46204e+08,546204,0.015852,1.1707,45.8164
1420,5.46212e+08,546212,0.0151378,1.17017,45.8165
1421,5.4622e+08,546220,0.0143044,1.16979,45.8169
1422,5.46229e+08,546229,0.0138654,1.16954,45.8167
1423,5.46237e+08,546237,0.0143072,1.16869,45.8167
1424,5.46245e+08,546245,0.0146895,1.16801,45.8158
1425,5.46254e+08,546254,0.0146392,1.16865,45.8164
1426,5.46262e+08,546262,0.0151199,1.16874,45.8167
1427,5.4627e+08,546270,0.0145784,1.16906,45.8173
1428,5.46278e+08,546278,0.0149228,1.1695,45.8168
1429,5.46287e+08,546287,0.0133991,1.17021,45.8162
1430,5.46295e+08,546295,0.0127692,1.16915,45.8161
1431,5.46303e+08,546303,0.0117678,1.16939,45.8168
1432,5.46312e+08,546312,0.0117915,1.1699,45.8166
1433,5.4632e+08,546320,0.0127021,1.16954,45.8176
1434,5.46328e+08,546328,0.0131311,1.16866,45.8174
1435,5.46337e+08,546337,0.0133824,1.16855,45.817
1436,5.46345e+08,546345,0.0132882,1.16819,45.8164
1437,5.46353e+08,546353,0.0125159,1.1679,45.8165
1438,5.46362e+08,546362,0.0129389,1.16813,45.8169
1439,5.4637e+08,546370,0.0283783,1.1652,45.8256
1440,5.46378e+08,546378,0.0282431,1.16452,45.8253
1441,5.46387e+08,546387,0.0283587,1.16428,45.8253
1442,5.46395e+08,546395,0.0282252,1.16419,45.8252
1443,5.46403e+08,546403,0.0284239,1.16465,45.8257
1444,5.46412e+08,546412,0.0279434,1.16471,45.8259
1445,5.4642e+08,546420,0.0278037,1.16459,45.8263
1446,5.46428e+08,546428,0.0275424,1.1652,45.8268
1447,5.46437e+08,546437,0.0269536,1.16493,45.8269
1448,5.46445e+08,546445,0.0258355,1.16393,45.8266
1449,5.46453e+08,546453,0.0257263,1.16359,45.8269
1450,5.46462e+08,546462,0.0255144,1.16263,45.8274
1451,5.4647e+08,546470,0.0261869,1.1636,45.8279
1452,5.46478e+08,546478,0.0263204,1.16358,45.8277
1453,5.46487e+08,546487,0.0269931,1.16294,45.8276
1454,5.46495e+08,546495,0.0273443,1.163,45.8284
1455,5.46503e+08,546503,0.0284784,1.16266,45.828
1456,5.46512e+08,546512,0.027947,1.16215,45.8282
1457,5.4652e+08,546520,0.0278942,1.16164,45.8281
1458,5.46528e+08,546528,0.0280772,1.16192,45.8279
1459,5.46537e+08,546537,0.0279143,1.16179,45.8276
1460,5.46545e+08,546545,0.0283688,1.16242,45.8268
1461,5.46553e+08,546553,0.0290999,1.16206,45.8263
1462,5.46562e+08,546562,0.0289657,1.16175,45.8265
1463,5.4657e+08,546570,0.0288352,1.16153,45.8264
1464,5.46578e+08,546578,0.0290028,1.16157,45.8258
1465,5.46587e+08,546587,0.0284643,1.1618,45.8256
1466,5.46595e+08,546595,0.0273121,1.16162,45.8256
1467,5.46603e+08,546603,0.0273447,1.16146,45.8261
1468,5.46612e+08,546612,0.0269868,1.16072,45.8262
1469,5.4662e+08,546620,0.026333,1.16047,45.828
1470,5.46628e+08,546628,0.0264184,1.16116,45.828
1471,5.46637e+08,546637,0.0262394,1.16069,45.8273
1472,5.46645e+08,546645,0.0263841,1.16121,45.8274
1473,5.46653e+08,546653,0.0263382,1.1615,45.8272
1474,5.46662e+08,546662,0.0261399,1.16097,45.8271
1475,5.4667e+08,546670,0.0256266,1.16104,45.8275
1476,5.46678e+08,546678,0.0255428,1.16114,45.8268
1477,5.46687e+08,546687,0.0258484,1.16112,45.8269
1478,5.46695e+08,546695,0.0260811,1.16088,45.8274
1479,5.46703e+08,546703,0.0257433,1.16235,45.8271
1480,5.46712e+08,546712,0.0260529,1.16223,45.8267
1481,5.4672e+08,546720,0.0260041,1.16185,45.8276
1482,5.46728e+08,546728,0.0259964,1.16204,45.8271
1483,5.46737e+08,546737,0.0255246,1.16277,45.8266
1484,5.46745e+08,546745,0.0253806,1.16375,45.8266
1485,5.46753e+08,546753,0.0247173,1.16381,45.8269
1486,5.46762e+08,546762,0.0252345,1.16338,45.8268
1487,5.4677e+08,546770,0.0258907,1.16418,45.8271
1488,5.46778e+08,546778,0.0253829,1.16419,45.8268
1489,5.46787e+08,546787,0.0247918,1.16382,45.8275
1490,5.46795e+08,546795,0.0252312,1.16303,45.828
1491,5.46803e+08,546803,0.0258003,1.1635,45.8281
1492,5.46812e+08,546812,0.026467,1.16353,45.8278
1493,5.4682e+08,546820,0.0256728,1.16338,45.8275
1494,5.46828e+08,546828,0.0251529,1.16325,45.8283
1495,5.46837e+08,546837,0.0250417,1.16289,45.8288
1496,5.46845e+08,546845,0.0250365,1.16272,45.8289
1497,5.46853e+08,546853,0.0253284,1.16197,45.8294
1498,5.46862e+08,546862,0.025092,1.16237,45.8302
1499,5.4687e+08,546870,0.0258982,1.16253,45.8298
1500,5.46878e+08,546878,0.0266583,1.16224,45.8305
1501,5.46887e+08,546887,0.0270737,1.16251,45.8308
1502,5.46895e+08,546895,0.0271205,1.16181,45.8307
1503,5.46903e+08,546903,0.026251,1.16151,45.8308
1504,5.46912e+08,546912,0.02582,1.16174,45.8308
1505,5.4692e+08,546920,0.0259854,1.16314,45.8309
1506,5.46928e+08,546928,0.0260704,1.16337,45.8306
1507,5.46937e+08,546937,0.0265675,1.16261,45.8308
1508,5.46945e+08,546945,0.0261021,1.16306,45.83
1509,5.46953e+08,546953,0.0264173,1.16253,45.8298
1510,5.46962e+08,546962,0.0257138,1.16221,45.8297
1511,5.4697e+08,546970,0.0254077,1.16226,45.8296
1512,5.46978e+08,546978,0.0252444,1.16224,45.8299
1513,5.46987e+08,546987,0.025545,1.16235,45.8293
1514,5.46995e+08,546995,0.0251686,1.16208,45.8291
1515,5.47003e+08,547003,0.0246499,1.16224,45.8292
1516,5.47012e+08,547012,0.0249794,1.16225,45.8298
1517,5.4702e+08,547020,0.0254084,1.16169,45.8299
1518,5.47028e+08,547028,0.0253699,1.16098,45.8297
1519,5.47037e+08,547037,0.0257747,1.16062,45.8297
1520,5.47045e+08,547045,0.0256212,1.16062,45.8295
1521,5.47053e+08,547053,0.0255424,1.15955,45.8298
1522,5.47062e+08,547062,0.0251365,1.15981,45.8293
1523,5.4707e+08,547070,0.0248068,1.16069,45.8291
1524,5.47078e+08,547078,0.0252808,1.16093,45.8295
1525,5.47087e+08,547087,0.0248623,1.1621,45.8296
1526,5.47095e+08,547095,0.0251202,1.16212,45.8296
1527,5.47103e+08,547103,0.0246338,1.16233,45.8296
1528,5.47112e+08,547112,0.0238334,1.16191,45.8292
1529,5.4712e+08,547120,0.024597,1.1614,45.8293
1530,5.47128e+08,547128,0.0247112,1.1604,45.8292
1531,5.47137e+08,547137,0.0244238,1.16099,45.8291
1532,5.47145e+08,547145,0.0245132,1.16149,45.8298
1533,5.47153e+08,547153,0.024808,1.16087,45.8309
1534,5.47162e+08,547162,0.0255368,1.16035,45.8314
1535,5.4717e+08,547170,0.0245481,1.15905,45.8305
1536,5.47178e+08,547178,0.0241305,1.15816,45.8304
1537,5.47187e+08,547187,0.0243551,1.15827,45.8303
1538,5.47195e+08,547195,0.0244548,1.15819,45.8305
1539,5.47203e+08,547203,0.024193,1.15835,45.8307
1540,5.47212e+08,547212,0.0239658,1.15778,45.83
1541,5.4722e+08,547220,0.024085,1.15785,45.8297
1542,5.47228e+08,547228,0.0239006,1.15794,45.83
1543,5.47237e+08,547237,0.023727,1.1574,45.8297
1544,5.47245e+08,547245,0.0236321,1.15693,45.8288
1545,5.47253e+08,547253,0.0237021,1.1567,45.8287
1546,5.47262e+08,547262,0.0245425,1.15654,45.8285
1547,5.4727e+08,547270,0.0245462,1.15607,45.8289
1548,5.47278e+08,547278,0.0242913,1.15618,45.8295
1549,5.47287e+08,547287,0.0243312,1.15563,45.8293
1550,5.47295e+08,547295,0.0243512,1.15624,45.83
1551,5.47303e+08,547303,0.0234949,1.155,45.83
1552,5.47312e+08,547312,0.0223083,1.15447,45.8297
1553,5.4732e+08,547320,0.0226391,1.15381,45.829
1554,5.47328e+08,547328,0.0222202,1.15343,45.8288
1555,5.47337e+08,547337,0.0212201,1.15203,45.8287
1556,5.47345e+08,547345,0.0207508,1.15135,45.8286
1557,5.47353e+08,547353,0.0200335,1.15156,45.8284
1558,5.47362e+08,547362,0.0199626,1.1512,45.829
1559,5.4737e+08,547370,0.0206161,1.15071,45.8294
1560,5.47378e+08,547378,0.0203256,1.15098,45.8298
1561,5.47387e+08,547387,0.0197557,1.1506,45.8298
1562,5.47395e+08,547395,0.0202367,1.14951,45.8297
1563,5.47403e+08,547403,0.0205435,1.15014,45.8312
1564,5.47412e+08,547412,0.0206629,1.15088,45.8309
1565,5.4742e+08,547420,0.0210062,1.15119,45.8313
1566,5.47428e+08,547428,0.0218098,1.15085,45.8321
1567,5.47437e+08,547437,0.0213752,1.15078,45.8317
1568,5.47445e+08,547445,0.0215261,1.15007,45.8312
1569,5.47453e+08,547453,0.0212793,1.15061,45.8315
1570,5.47462e+08,547462,0.0217703,1.15025,45.8315
1571,5.4747e+08,547470,0.0221628,1.1504,45.8319
1572,5.47478e+08,547478,0.0217404,1.14979,45.8315
1573,5.47487e+08,547487,0.0216823,1.14986,45.8314
1574,5.47495e+08,547495,0.0208783,1.14999,45.8312
1575,5.47503e+08,547503,0.0202387,1.15006,45.8314
1576,5.47512e+08,547512,0.0203607,1.14969,45.8308
1577,5.4752e+08,547520,0.0202349,1.14979,45.8315
1578,5.47528e+08,547528,0.0202637,1.15021,45.8312
1579,5.47537e+08,547537,0.0208962,1.15084,45.8308
1580,5.47545e+08,547545,0.0210493,1.1511,45.8306
1581,5.47553e+08,547553,0.0200341,1.15059,45.8303
1582,5.47562e+08,547562,0.0199862,1.15123,45.8302
1583,5.4757e+08,547570,0.0199152,1.15045,45.8306
1584,5.47578e+08,547578,0.0196449,1.15055,45.8307
1585,5.47587e+08,547587,0.0195662,1.15079,45.8303
1586,5.47595e+08,547595,0.0193881,1.15112,45.8302
1587,5.47603e+08,547603,0.0192889,1.15094,45.8304
1588,5.47612e+08,547612,0.0200462,1.15062,45.8307
1589,5.4762e+08,547620,0.0194702,1.15085,45.8313
1590,5.47628e+08,547628,0.0201387,1.15023,45.8313
1591,5.47637e+08,547637,0.0206196,1.15067,45.8301
1592,5.47645e+08,547645,0.0201961,1.15051,45.8303
1593,5.47653e+08,547653,0.0198254,1.15038,45.8305
1594,5.47662e+08,547662,0.0194559,1.14991,45.8301
1595,5.4767e+08,547670,0.0197483,1.14891,45.8308
1596,5.47678e+08,547678,0.0196921,1.14864,45.831
1597,5.47687e+08,547687,0.0199257,1.14843,45.8315
1598,5.47695e+08,547695,0.0193512,1.1479,45.8305
1599,5.47703e+08,547703,0.018723,1.14781,45.831
1600,5.47712e+08,547712,0.0190943,1.14707,45.8309
1601,5.4772e+08,547720,0.0194755,1.14631,45.8314
1602,5.47728e+08,547728,0.0197419,1.14638,45.8318
1603,5.47737e+08,547737,0.0197492,1.14741,45.8322
1604,5.47745e+08,547745,0.0192534,1.14708,45.8319
1605,5.47753e+08,547753,0.0183115,1.14699,45.8318
1606,5.47762e+08,547762,0.0185815,1.14641,45.8318
1607,5.4777e+08,547770,0.0190329,1.14666,45.8321
1608,5.47778e+08,547778,0.0187045,1.14611,45.8321
1609,5.47787e+08,547787,0.0188537,1.14561,45.8321
1610,5.47795e+08,547795,0.018364,1.1449,45.8322
1611,5.47803e+08,547803,0.0177749,1.14477,45.8323
1612,5.47812e+08,547812,0.0179136,1.14424,45.8323
1613,5.4782e+08,547820,0.0172453,1.1444,45.8324
1614,5.47828e+08,547828,0.0163817,1.14465,45.8324
1615,5.47837e+08,547837,0.0154787,1.14462,45.8327
1616,5.47845e+08,547845,0.015366,1.1446,45.8341
1617,5.47853e+08,547853,0.0149875,1.1446,45.8338
1618,5.47862e+08,547862,0.0152181,1.1451,45.834
1619,5.4787e+08,547870,0.0146323,1.14464,45.8344
1620,5.47878e+08,547878,0.0145159,1.1448,45.8339
1621,5.47887e+08,547887,0.0150618,1.14439,45.8343
1622,5.47895e+08,547895,0.0148438,1.14416,45.8341
1623,5.47903e+08,547903,0.0153691,1.14462,45.8348
1624,5.47912e+08,547912,0.0149658,1.14474,45.8358
1625,5.4792e+08,547920,0.0146912,1.14468,45.8353
1626,5.47928e+08,547928,0.0146955,1.14495,45.8348
1627,5.47937e+08,547937,0.0144594,1.14477,45.8351
1628,5.47945e+08,547945,0.0144081,1.14336,45.8349
1629,5.47953e+08,547953,0.0149945,1.1434,45.8342
1630,5.47962e+08,547962,0.0146502,1.14394,45.8343
1631,5.4797e+08,547970,0.0135365,1.14367,45.8349
1632,5.47978e+08,547978,0.014266,1.14385,45.8344
1633,5.47987e+08,547987,0.0141413,1.14324,45.8345
1634,5.47995e+08,547995,0.0137958,1.14274,45.8336
1635,5.48003e+08,548003,0.0137204,1.14217,45.8336
1636,5.48012e+08,548012,0.0135927,1.14177,45.8331
1637,5.4802e+08,548020,0.0129947,1.14165,45.8324
1638,5.48028e+08,548028,0.0129469,1.14115,45.8319
1639,5.48037e+08,548037,0.012739,1.14084,45.8315
1640,5.48045e+08,548045,0.0128997,1.14011,45.8316
1641,5.48053e+08,548053,0.0127604,1.13949,45.8311
1642,5.48062e+08,548062,0.0124401,1.14015,45.8308
1643,5.4807e+08,548070,0.0129557,1.13965,45.8306
1644,5.48078e+08,548078,0.0142868,1.14009,45.8305
1645,5.48087e+08,548087,0.0145734,1.1401,45.8303
1646,5.48095e+08,548095,0.0135412,1.14027,45.8298
1647,5.48103e+08,548103,0.0141105,1.14034,45.8299
1648,5.48112e+08,548112,0.014663,1.14015,45.8302
1649,5.4812e+08,548120,0.0151621,1.13981,45.8308
1650,5.48128e+08,548128,0.015946,1.13956,45.8317
1651,5.48137e+08,548137,0.0156665,1.13899,45.8315
1652,5.48145e+08,548145,0.0157036,1.13984,45.8317
1653,5.48153e+08,548153,0.0153859,1.13979,45.8315
1654,5.48162e+08,548162,0.0159043,1.13968,45.8314
1655,5.4817e+08,548170,0.0157216,1.14042,45.831
1656,5.48178e+08,548178,0.0150821,1.13992,45.8309
1657,5.48187e+08,548187,0.0158196,1.14017,45.8325
1658,5.48195e+08,548195,0.016013,1.13953,45.8323
1659,5.48203e+08,548203,0.0156857,1.13913,45.8327
1660,5.48212e+08,548212,0.0159318,1.13819,45.8331
1661,5.4822e+08,548220,0.0154617,1.13968,45.8337
1662,5.48228e+08,548228,0.016115,1.14009,45.833
1663,5.48237e+08,548237,0.0168327,1.14076,45.8336
1664,5.48245e+08,548245,0.0172115,1.14013,45.8338
1665,5.48253e+08,548253,0.0178706,1.14091,45.8342
1666,5.48262e+08,548262,0.0166726,1.14109,45.8337
1667,5.4827e+08,548270,0.0165572,1.14083,45.834
1668,5.48278e+08,548278,0.0159423,1.14139,45.8339
1669,5.48287e+08,548287,0.015869,1.14104,45.8339
1670,5.48295e+08,548295,0.0157955,1.1404,45.8338
1671,5.48303e+08,548303,0.0152218,1.13968,45.8344
1672,5.48312e+08,548312,0.0147012,1.13957,45.8341
1673,5.4832e+08,548320,0.014805,1.1402,45.8347
1674,5.48328e+08,548328,0.014635,1.14019,45.8344
1675,5.48337e+08,548337,0.0137821,1.14039,45.8345
1676,5.48345e+08,548345,0.0137999,1.14017,45.8335
1677,5.48353e+08,548353,0.014028,1.13934,45.834
1678,5.48362e+08,548362,0.0132533,1.13906,45.8339
1679,5.4837e+08,548370,0.0195391,1.15205,45.8397
1680,5.48378e+08,548378,0.0194569,1.1519,45.8404
1681,5.48387e+08,548387,0.0200875,1.15154,45.8402
1682,5.48395e+08,548395,0.0198407,1.15166,45.8407
1683,5.48403e+08,548403,0.02088,1.15136,45.8416
1684,5.48412e+08,548412,0.0212627,1.15126,45.8411
1685,5.4842e+08,548420,0.0207603,1.15092,45.841
1686,5.48428e+08,548428,0.0208793,1.14993,45.8415
1687,5.48437e+08,548437,0.0202209,1.14956,45.8416
1688,5.48445e+08,548445,0.0203491,1.14881,45.8418
1689,5.48453e+08,548453,0.0200964,1.14897,45.8424
1690,5.48462e+08,548462,0.0194807,1.14901,45.8424
1691,5.4847e+08,548470,0.0195551,1.1496,45.8419
1692,5.48478e+08,548478,0.0190374,1.14989,45.8421
1693,5.48487e+08,548487,0.0198952,1.1495,45.8423
1694,5.48495e+08,548495,0.0196038,1.14958,45.8426
1695,5.48503e+08,548503,0.0193183,1.14936,45.8427
1696,5.48512e+08,548512,0.0192952,1.14957,45.8417
1697,5.4852e+08,548520,0.0190593,1.15062,45.8415
1698,5.48528e+08,548528,0.0189528,1.15033,45.8417
1699,5.48537e+08,548537,0.0187388,1.14983,45.8415
1700,5.48545e+08,548545,0.0182467,1.14923,45.8426
1701,5.48553e+08,548553,0.0181381,1.14871,45.8422
1702,5.48562e+08,548562,0.0180959,1.14877,45.8428
1703,5.4857e+08,548570,0.0185377,1.14827,45.8439
1704,5.48578e+08,548578,0.0179975,1.1486,45.8436
1705,5.48587e+08,548587,0.0175674,1.14924,45.8447
1706,5.48595e+08,548595,0.0167039,1.14999,45.8464
1707,5.48603e+08,548603,0.0173726,1.1502,45.847
1708,5.48612e+08,548612,0.0175413,1.15047,45.8477
1709,5.4862e+08,548620,0.0181477,1.15087,45.8478
1710,5.48628e+08,548628,0.0188566,1.15233,45.8483
1711,5.48637e+08,548637,0.0188759,1.15209,45.8479
1712,5.48645e+08,548645,0.0187024,1.15126,45.8477
1713,5.48653e+08,548653,0.0188731,1.1509,45.8474
1714,5.48662e+08,548662,0.0191654,1.15065,45.8478
1715,5.4867e+08,548670,0.0188241,1.1506,45.8473
1716,5.48678e+08,548678,0.0196311,1.15088,45.8472
1717,5.48687e+08,548687,0.0187766,1.15088,45.8475
1718,5.48695e+08,548695,0.0186324,1.15111,45.8475
1719,5.48703e+08,548703,0.0182038,1.15061,45.8471
1720,5.48712e+08,548712,0.0188677,1.15084,45.8469
1721,5.4872e+08,548720,0.0192348,1.15054,45.847
1722,5.48728e+08,548728,0.0189227,1.15028,45.8475
1723,5.48737e+08,548737,0.018322,1.15058,45.8474
1724,5.48745e+08,548745,0.0187877,1.15053,45.8472
1725,5.48753e+08,548753,0.0185595,1.15013,45.8469
1726,5.48762e+08,548762,0.0193361,1.14997,45.8471
1727,5.4877e+08,548770,0.0195784,1.14987,45.8468
1728,5.48778e+08,548778,0.0199341,1.15049,45.8475
1729,5.48787e+08,548787,0.0203848,1.15028,45.8481
1730,5.48795e+08,548795,0.0210937,1.15072,45.848
1731,5.48803e+08,548803,0.0208575,1.14975,45.8485
1732,5.48812e+08,548812,0.0205118,1.1504,45.8486
1733,5.4882e+08,548820,0.0202424,1.14981,45.8501
1734,5.48828e+08,548828,0.0206871,1.14876,45.8511
1735,5.48837e+08,548837,0.0209112,1.14924,45.8514
1736,5.48845e+08,548845,0.0205546,1.14894,45.8509
1737,5.48853e+08,548853,0.0204997,1.14849,45.852
1738,5.48862e+08,548862,0.0205936,1.14876,45.8518
1739,5.4887e+08,548870,0.0212825,1.14802,45.8528
1740,5.48878e+08,548878,0.0209358,1.14795,45.8529
1741,5.48887e+08,548887,0.0207234,1.14778,45.853
1742,5.48895e+08,548895,0.0207093,1.1481,45.8531
1743,5.48903e+08,548903,0.0211792,1.14717,45.8533
1744,5.48912e+08,548912,0.0217952,1.14615,45.8526
1745,5.4892e+08,548920,0.0208331,1.14677,45.8518
1746,5.48928e+08,548928,0.0204882,1.14667,45.8523
1747,5.48937e+08,548937,0.0210505,1.14657,45.8527
1748,5.48945e+08,548945,0.0207834,1.14647,45.8527
1749,5.48953e+08,548953,0.0210907,1.14606,45.8517
1750,5.48962e+08,548962,0.0213892,1.14633,45.8516
1751,5.4897e+08,548970,0.0217929,1.14576,45.8525
1752,5.48978e+08,548978,0.021269,1.14587,45.8527
1753,5.48987e+08,548987,0.0210532,1.14567,45.853
1754,5.48995e+08,548995,0.0218355,1.14607,45.8544
1755,5.49003e+08,549003,0.0217528,1.146,45.8531
1756,5.49012e+08,549012,0.0220539,1.14561,45.8522
1757,5.4902e+08,549020,0.0213657,1.14648,45.8535
1758,5.49028e+08,549028,0.022124,1.14727,45.8546
1759,5.49037e+08,549037,0.0224407,1.14686,45.8544
1760,5.49045e+08,549045,0.0218849,1.14663,45.8549
1761,5.49053e+08,549053,0.0220014,1.14667,45.8557
1762,5.49062e+08,549062,0.0228331,1.1458,45.8562
1763,5.4907e+08,549070,0.02345,1.1465,45.8559
1764,5.49078e+08,549078,0.0236894,1.14688,45.8557
1765,5.49087e+08,549087,0.0238011,1.14717,45.8558
1766,5.49095e+08,549095,0.0232049,1.147,45.8567
1767,5.49103e+08,549103,0.0231063,1.14754,45.8568
1768,5.49112e+08,549112,0.0230814,1.14759,45.8572
1769,5.4912e+08,549120,0.0230623,1.14835,45.8573
1770,5.49128e+08,549128,0.0234057,1.14921,45.8578
1771,5.49137e+08,549137,0.0236968,1.14929,45.858
1772,5.49145e+08,549145,0.0226784,1.14906,45.8586
1773,5.49153e+08,549153,0.0231,1.14858,45.859
1774,5.49162e+08,549162,0.0233582,1.14807,45.8592
1775,5.4917e+08,549170,0.0226808,1.14751,45.8591
1776,5.49178e+08,549178,0.022318,1.14677,45.8593
1777,5.49187e+08,549187,0.0221545,1.14646,45.8603
1778,5.49195e+08,549195,0.0214556,1.14675,45.8611
1779,5.49203e+08,549203,0.0215967,1.14662,45.862
1780,5.49212e+08,549212,0.0220487,1.14688,45.8623
1781,5.4922e+08,549220,0.0227377,1.14656,45.8634
1782,5.49228e+08,549228,0.0224352,1.14627,45.8638
1783,5.49237e+08,549237,0.0224035,1.14669,45.8637
1784,5.49245e+08,549245,0.0218576,1.1465,45.8639
1785,5.49253e+08,549253,0.0227166,1.14649,45.8628
1786,5.49262e+08,549262,0.0230385,1.14625,45.8628
1787,5.4927e+08,549270,0.0229261,1.146,45.8635
1788,5.49278e+08,549278,0.0229643,1.14548,45.8644
1789,5.49287e+08,549287,0.0240598,1.14519,45.8653
1790,5.49295e+08,549295,0.023869,1.14514,45.8648
1791,5.49303e+08,549303,0.0233797,1.14461,45.8642
1792,5.49312e+08,549312,0.0239582,1.1447,45.8653
1793,5.4932e+08,549320,0.0248454,1.14467,45.8663
1794,5.49328e+08,549328,0.0248908,1.14426,45.8667
1795,5.49337e+08,549337,0.0245742,1.14426,45.8667
1796,5.49345e+08,549345,0.0254375,1.14384,45.8672
1797,5.49353e+08,549353,0.0256156,1.14347,45.8679
1798,5.49362e+08,549362,0.0264631,1.14375,45.8677
1799,5.4937e+08,549370,0.0257383,1.14367,45.8676
1800,5.49378e+08,549378,0.0262979,1.14438,45.8682
1801,5.49387e+08,549387,0.0260773,1.14441,45.8687
1802,5.49395e+08,549395,0.0249107,1.14403,45.8681
1803,5.49403e+08,549403,0.0255501,1.14361,45.8681
1804,5.49412e+08,549412,0.0256814,1.14363,45.8685
1805,5.4942e+08,549420,0.0256302,1.14341,45.8687
1806,5.49428e+08,549428,0.0261647,1.14282,45.8689
1807,5.49437e+08,549437,0.0265417,1.14177,45.8681
1808,5.49445e+08,549445,0.0270502,1.14233,45.8682
1809,5.49453e+08,549453,0.0270674,1.143,45.8681
1810,5.49462e+08,549462,0.0266396,1.14313,45.868
1811,5.4947e+08,549470,0.0264409,1.1424,45.8673
1812,5.49478e+08,549478,0.0266375,1.14252,45.8681
1813,5.49487e+08,549487,0.0264007,1.14284,45.8673
1814,5.49495e+08,549495,0.0263521,1.14327,45.868
1815,5.49503e+08,549503,0.0269545,1.14331,45.8689
1816,5.49512e+08,549512,0.0273413,1.14372,45.8689
1817,5.4952e+08,549520,0.0270888,1.14364,45.8692
1818,5.49528e+08,549528,0.0282218,1.14423,45.8691
1819,5.49537e+08,549537,0.0276881,1.14394,45.8688
1820,5.49545e+08,549545,0.0273297,1.14431,45.8692
1821,5.49553e+08,549553,0.028081,1.1452,45.8685
1822,5.49562e+08,549562,0.0279884,1.14478,45.868
1823,5.4957e+08,549570,0.0281015,1.14455,45.8679
1824,5.49578e+08,549578,0.0283212,1.14436,45.8683
1825,5.49587e+08,549587,0.0287605,1.14475,45.8683
1826,5.49595e+08,549595,0.0281423,1.14466,45.8682
1827,5.49603e+08,549603,0.0284323,1.1441,45.8684
1828,5.49612e+08,549612,0.0292474,1.14375,45.8678
1829,5.4962e+08,549620,0.0298526,1.14422,45.8677
1830,5.49628e+08,549628,0.0290662,1.14392,45.8677
1831,5.49637e+08,549637,0.0292529,1.14449,45.8669
1832,5.49645e+08,549645,0.0295802,1.14468,45.8665
1833,5.49653e+08,549653,0.029605,1.1443,45.8671
1834,5.49662e+08,549662,0.0295112,1.14462,45.8675
1835,5.4967e+08,549670,0.0293878,1.14486,45.8682
1836,5.49678e+08,549678,0.0293334,1.14498,45.8686
1837,5.49687e+08,549687,0.0289987,1.14524,45.869
1838,5.49695e+08,549695,0.0292744,1.14429,45.8687
1839,5.49703e+08,549703,0.0292708,1.14456,45.8683
1840,5.49712e+08,549712,0.0296263,1.14364,45.8685
1841,5.4972e+08,549720,0.0300557,1.14349,45.8686
1842,5.49728e+08,549728,0.0304751,1.14475,45.8679
1843,5.49737e+08,549737,0.0305501,1.14531,45.8677
1844,5.49745e+08,549745,0.0310622,1.14561,45.8682
1845,5.49753e+08,549753,0.0321902,1.14527,45.868
1846,5.49762e+08,549762,0.0326397,1.14568,45.8675
1847,5.4977e+08,549770,0.0329326,1.14562,45.8677
1848,5.49778e+08,549778,0.0333774,1.14549,45.868
1849,5.49787e+08,549787,0.0332622,1.14566,45.8689
1850,5.49795e+08,549795,0.0344626,1.14632,45.8686
1851,5.49803e+08,549803,0.0344258,1.14615,45.8696
1852,5.49812e+08,549812,0.0345895,1.14594,45.8702
1853,5.4982e+08,549820,0.0356913,1.14586,45.8701
1854,5.49828e+08,549828,0.0357662,1.1459,45.8703
1855,5.49837e+08,549837,0.035672,1.145,45.8698
1856,5.49845e+08,549845,0.036337,1.14517,45.8695
1857,5.49853e+08,549853,0.0364496,1.14542,45.8695
1858,5.49862e+08,549862,0.036371,1.14525,45.8696
1859,5.4987e+08,549870,0.0365654,1.14507,45.8698
1860,5.49878e+08,549878,0.0366446,1.14624,45.8692
1861,5.49887e+08,549887,0.0374662,1.14654,45.8684
1862,5.49895e+08,549895,0.0375485,1.14682,45.8689
1863,5.49903e+08,549903,0.0376405,1.1477,45.87
1864,5.49912e+08,549912,0.0381396,1.14717,45.8708
1865,5.4992e+08,549920,0.0385183,1.14762,45.871
1866,5.49928e+08,549928,0.0383429,1.14773,45.8706
1867,5.49937e+08,549937,0.0384808,1.14794,45.8705
1868,5.49945e+08,549945,0.0385179,1.14853,45.8714
1869,5.49953e+08,549953,0.039073,1.14855,45.8725
1870,5.49962e+08,549962,0.0387993,1.1488,45.8731
1871,5.4997e+08,549970,0.0381827,1.14914,45.8729
1872,5.49978e+08,549978,0.0388977,1.14844,45.8731
1873,5.49987e+08,549987,0.0396328,1.14825,45.8739
1874,5.49995e+08,549995,0.0389787,1.14812,45.8744
1875,5.50003e+08,550003,0.0405353,1.14813,45.8753
1876,5.50012e+08,550012,0.0407674,1.14704,45.8753
1877,5.5002e+08,550020,0.0396342,1.14703,45.8761
1878,5.50028e+08,550028,0.0399959,1.14657,45.8754
1879,5.50037e+08,550037,0.0394487,1.14676,45.8767
1880,5.50045e+08,550045,0.0394546,1.14643,45.8771
1881,5.50053e+08,550053,0.0394067,1.14694,45.8776
1882,5.50062e+08,550062,0.0394933,1.14729,45.8785
1883,5.5007e+08,550070,0.0406165,1.14674,45.8772
1884,5.50078e+08,550078,0.0404275,1.14602,45.877
1885,5.50087e+08,550087,0.039967,1.14662,45.8767
1886,5.50095e+08,550095,0.0397963,1.14632,45.8762
1887,5.50103e+08,550103,0.0402529,1.14623,45.8768
1888,5.50112e+08,550112,0.0398601,1.14677,45.8776
1889,5.5012e+08,550120,0.0390117,1.14694,45.8773
1890,5.50128e+08,550128,0.0391199,1.14677,45.8767
1891,5.50137e+08,550137,0.0388311,1.14627,45.8767
1892,5.50145e+08,550145,0.0383798,1.14694,45.8767
1893,5.50153e+08,550153,0.0383648,1.14716,45.8755
1894,5.50162e+08,550162,0.038332,1.14698,45.8759
1895,5.5017e+08,550170,0.0381974,1.14713,45.8765
1896,5.50178e+08,550178,0.0387956,1.14679,45.877
1897,5.50187e+08,550187,0.0387419,1.1474,45.8776
1898,5.50195e+08,550195,0.0391262,1.14756,45.8777
1899,5.50203e+08,550203,0.0389219,1.1476,45.8771
1900,5.50212e+08,550212,0.0392117,1.1463,45.8774
1901,5.5022e+08,550220,0.0381317,1.14526,45.8778
1902,5.50228e+08,550228,0.0376093,1.14526,45.8772
1903,5.50237e+08,550237,0.0375017,1.14539,45.877
1904,5.50245e+08,550245,0.0381269,1.14532,45.8773
1905,5.50253e+08,550253,0.039109,1.14512,45.8771
1906,5.50262e+08,550262,0.0397897,1.14513,45.878
1907,5.5027e+08,550270,0.0400131,1.14515,45.8776
1908,5.50278e+08,550278,0.0397903,1.14552,45.8779
1909,5.50287e+08,550287,0.0400955,1.14519,45.877
1910,5.50295e+08,550295,0.0402535,1.14497,45.8783
1911,5.50303e+08,550303,0.0398243,1.14496,45.8782
1912,5.50312e+08,550312,0.0399641,1.14426,45.8775
1913,5.5032e+08,550320,0.0400477,1.14408,45.8775
1914,5.50328e+08,550328,0.0400854,1.14411,45.8779
1915,5.50337e+08,550337,0.0398218,1.14398,45.8775
1916,5.50345e+08,550345,0.0393111,1.14457,45.878
1917,5.50353e+08,550353,0.0385648,1.14466,45.8784
1918,5.50362e+08,550362,0.0394357,1.1455,45.8789
1919,5.5037e+08,550370,0.0239823,1.1493,45.8696
1920,5.50378e+08,550378,0.0239228,1.14952,45.8704
1921,5.50387e+08,550387,0.0239377,1.15022,45.8698
1922,5.50395e+08,550395,0.0242433,1.15005,45.8695
1923,5.50403e+08,550403,0.0240599,1.14963,45.8701
1924,5.50412e+08,550412,0.0242541,1.14963,45.8705
1925,5.5042e+08,550420,0.02536,1.15025,45.8714
1926,5.50428e+08,550428,0.0259524,1.15019,45.8704
1927,5.50437e+08,550437,0.0253402,1.14991,45.8707
1928,5.50445e+08,550445,0.0252028,1.14929,45.8717
1929,5.50453e+08,550453,0.025416,1.14969,45.8715
1930,5.50462e+08,550462,0.0248301,1.14995,45.872
1931,5.5047e+08,550470,0.0249728,1.14963,45.8727
1932,5.50478e+08,550478,0.0244582,1.14977,45.8732
1933,5.50487e+08,550487,0.0244514,1.15053,45.8741
1934,5.50495e+08,550495,0.0247906,1.15111,45.8746
1935,5.50503e+08,550503,0.0250654,1.15085,45.8754
1936,5.50512e+08,550512,0.0247664,1.15031,45.875
1937,5.5052e+08,550520,0.0248015,1.15033,45.8755
1938,5.50528e+08,550528,0.0241976,1.15033,45.8746
1939,5.50537e+08,550537,0.0236078,1.14966,45.8751
1940,5.50545e+08,550545,0.0240089,1.14953,45.8747
1941,5.50553e+08,550553,0.0236571,1.14879,45.8751
1942,5.50562e+08,550562,0.0240718,1.1493,45.8751
1943,5.5057e+08,550570,0.0239878,1.14847,45.875
1944,5.50578e+08,550578,0.0243475,1.14866,45.8749
1945,5.50587e+08,550587,0.0251558,1.14894,45.8745
1946,5.50595e+08,550595,0.0256613,1.14896,45.8744
1947,5.50603e+08,550603,0.0250581,1.14937,45.875
1948,5.50612e+08,550612,0.0247507,1.14941,45.8743
1949,5.5062e+08,550620,0.0246245,1.14938,45.8745
1950,5.50628e+08,550628,0.024325,1.14918,45.8743
1951,5.50637e+08,550637,0.0247742,1.149,45.8747
1952,5.50645e+08,550645,0.0236751,1.14873,45.8752
1953,5.50653e+08,550653,0.0236524,1.14784,45.876
1954,5.50662e+08,550662,0.023061,1.14773,45.876
1955,5.5067e+08,550670,0.0223875,1.14824,45.8772
1956,5.50678e+08,550678,0.0222738,1.14764,45.8778
1957,5.50687e+08,550687,0.022246,1.1477,45.8778
1958,5.50695e+08,550695,0.0221361,1.14668,45.8783
1959,5.50703e+08,550703,0.0221568,1.14673,45.8796
1960,5.50712e+08,550712,0.0215695,1.14649,45.8801
1961,5.5072e+08,550720,0.0222119,1.1467,45.88
1962,5.50728e+08,550728,0.0221493,1.14705,45.8802
1963,5.50737e+08,550737,0.022078,1.147,45.88
1964,5.50745e+08,550745,0.0224117,1.14767,45.8801
1965,5.50753e+08,550753,0.0227199,1.14807,45.8808
1966,5.50762e+08,550762,0.0238235,1.14883,45.8808
1967,5.5077e+08,550770,0.0243546,1.14883,45.8804
1968,5.50778e+08,550778,0.0246953,1.14875,45.8799
1969,5.50787e+08,550787,0.0250901,1.14844,45.8787
1970,5.50795e+08,550795,0.0249118,1.14893,45.8786
1971,5.50803e+08,550803,0.0249896,1.14936,45.88
1972,5.50812e+08,550812,0.0248111,1.14985,45.88
1973,5.5082e+08,550820,0.0252714,1.14996,45.8799
1974,5.50828e+08,550828,0.0253167,1.14997,45.8799
1975,5.50837e+08,550837,0.0260987,1.14975,45.879
1976,5.50845e+08,550845,0.026678,1.14867,45.8793
1977,5.50853e+08,550853,0.0264403,1.14887,45.8791
1978,5.50862e+08,550862,0.0257036,1.14819,45.8798
1979,5.5087e+08,550870,0.0257404,1.14817,45.8811
1980,5.50878e+08,550878,0.0255949,1.14829,45.8818
1981,5.50887e+08,550887,0.0249607,1.14833,45.8816
1982,5.50895e+08,550895,0.0244586,1.14812,45.8816
1983,5.50903e+08,550903,0.0246262,1.14779,45.8822
1984,5.50912e+08,550912,0.0242991,1.1473,45.8813
1985,5.5092e+08,550920,0.024898,1.1471,45.8815
1986,5.50928e+08,550928,0.0245274,1.14751,45.8821
1987,5.50937e+08,550937,0.0247657,1.14678,45.8824
1988,5.50945e+08,550945,0.0255195,1.14651,45.882
1989,5.50953e+08,550953,0.0257072,1.14743,45.883
1990,5.50962e+08,550962,0.0252263,1.14699,45.8832
1991,5.5097e+08,550970,0.0254182,1.14764,45.8847
1992,5.50978e+08,550978,0.0249725,1.1476,45.8847
1993,5.50987e+08,550987,0.0255606,1.14832,45.8844
1994,5.50995e+08,550995,0.0251768,1.1474,45.8844
1995,5.51003e+08,551003,0.0241991,1.14663,45.8849
1996,5.51012e+08,551012,0.0233743,1.14758,45.8849
1997,5.5102e+08,551020,0.0232313,1.14796,45.8848
1998,5.51028e+08,551028,0.0222253,1.14713,45.8845
1999,5.51037e+08,551037,0.022361,1.14665,45.8847
2000,5.51045e+08,551045,0.0224824,1.14681,45.8837
2001,5.51053e+08,551053,0.0228689,1.14668,45.884
2002,5.51062e+08,551062,0.0226123,1.14712,45.8835
2003,5.5107e+08,551070,0.02312,1.14617,45.8837
2004,5.51078e+08,551078,0.0228542,1.14624,45.8826
2005,5.51087e+08,551087,0.0228459,1.14667,45.8823
2006,5.51095e+08,551095,0.0226579,1.14704,45.8811
2007,5.51103e+08,551103,0.0228742,1.1472,45.8824
2008,5.51112e+08,551112,0.0230977,1.14701,45.8826
2009,5.5112e+08,551120,0.0231107,1.14763,45.8818
2010,5.51128e+08,551128,0.0233707,1.1478,45.8819
2011,5.51137e+08,551137,0.0233933,1.14898,45.8816
2012,5.51145e+08,551145,0.0231755,1.14871,45.8828
2013,5.51153e+08,551153,0.0228834,1.14815,45.8824
2014,5.51162e+08,551162,0.0229082,1.14818,45.8825
2015,5.5117e+08,551170,0.0228733,1.14731,45.8819
2016,5.51178e+08,551178,0.0220034,1.14689,45.8819
2017,5.51187e+08,551187,0.0206792,1.1464,45.882
2018,5.51195e+08,551195,0.0206898,1.14706,45.8815
2019,5.51203e+08,551203,0.0209762,1.14765,45.8819
2020,5.51212e+08,551212,0.0210319,1.14809,45.8818
2021,5.5122e+08,551220,0.0215072,1.14798,45.8813
2022,5.51228e+08,551228,0.0220789,1.14761,45.8803
2023,5.51237e+08,551237,0.0219159,1.14762,45.88
2024,5.51245e+08,551245,0.0220803,1.14832,45.8799
2025,5.51253e+08,551253,0.0225516,1.14845,45.88
2026,5.51262e+08,551262,0.0234525,1.14884,45.8798
2027,5.5127e+08,551270,0.0239449,1.14897,45.8802
2028,5.51278e+08,551278,0.0247806,1.14897,45.8807
2029,5.51287e+08,551287,0.0247181,1.14956,45.881
2030,5.51295e+08,551295,0.0248305,1.14999,45.8813
2031,5.51303e+08,551303,0.0245089,1.14978,45.8811
2032,5.51312e+08,551312,0.024965,1.14988,45.8811
2033,5.5132e+08,551320,0.0247292,1.14983,45.88
2034,5.51328e+08,551328,0.0248727,1.14954,45.8798
2035,5.51337e+08,551337,0.0243368,1.14995,45.8798
2036,5.51345e+08,551345,0.0246369,1.14964,45.8801
2037,5.51353e+08,551353,0.0247675,1.14896,45.8799
2038,5.51362e+08,551362,0.0244797,1.149,45.8805
2039,5.5137e+08,551370,0.0247432,1.14933,45.8814
2040,5.51378e+08,551378,0.0237109,1.15012,45.8808
2041,5.51387e+08,551387,0.0236079,1.15073,45.8812
2042,5.51395e+08,551395,0.0234463,1.15028,45.881
2043,5.51403e+08,551403,0.0232952,1.14997,45.8819
2044,5.51412e+08,551412,0.0234569,1.14987,45.8823
2045,5.5142e+08,551420,0.0232883,1.14945,45.8829
2046,5.51428e+08,551428,0.0231469,1.14937,45.8829
2047,5.51437e+08,551437,0.0226772,1.14942,45.8833
2048,5.51445e+08,551445,0.0221606,1.14944,45.8839
2049,5.51453e+08,551453,0.0220915,1.14988,45.884
2050,5.51462e+08,551462,0.0215834,1.15035,45.884
2051,5.5147e+08,551470,0.022325,1.14947,45.8841
2052,5.51478e+08,551478,0.023384,1.14959,45.8838
2053,5.51487e+08,551487,0.0222408,1.14869,45.8843
2054,5.51495e+08,551495,0.0221951,1.14748,45.8837
2055,5.51503e+08,551503,0.0213291,1.14731,45.884
2056,5.51512e+08,551512,0.0216602,1.14684,45.8841
2057,5.5152e+08,551520,0.0214632,1.14665,45.884
2058,5.51528e+08,551528,0.0210303,1.14653,45.8839
2059,5.51537e+08,551537,0.0210855,1.14618,45.8827
2060,5.51545e+08,551545,0.0214518,1.14616,45.8825
2061,5.51553e+08,551553,0.0218964,1.14546,45.8827
2062,5.51562e+08,551562,0.022436,1.14616,45.8831
2063,5.5157e+08,551570,0.0224427,1.14584,45.8837
2064,5.51578e+08,551578,0.0229603,1.14572,45.8835
2065,5.51587e+08,551587,0.0229091,1.1453,45.8837
2066,5.51595e+08,551595,0.0231385,1.14431,45.8836
2067,5.51603e+08,551603,0.0231602,1.14422,45.8838
2068,5.51612e+08,551612,0.0235806,1.14339,45.8842
2069,5.5162e+08,551620,0.0228563,1.14278,45.8854
2070,5.51628e+08,551628,0.0226141,1.1426,45.884
2071,5.51637e+08,551637,0.0229431,1.14251,45.8837
2072,5.51645e+08,551645,0.0231627,1.14353,45.8831
2073,5.51653e+08,551653,0.0227672,1.14339,45.8841
2074,5.51662e+08,551662,0.0224248,1.14344,45.8841
2075,5.5167e+08,551670,0.0221193,1.14375,45.8833
2076,5.51678e+08,551678,0.0219849,1.14363,45.8838
2077,5.51687e+08,551687,0.0226175,1.14341,45.8839
2078,5.51695e+08,551695,0.0220646,1.14298,45.8842
2079,5.51703e+08,551703,0.0223969,1.1436,45.8844
2080,5.51712e+08,551712,0.0226543,1.14382,45.8834
2081,5.5172e+08,551720,0.0229237,1.14332,45.8837
2082,5.51728e+08,551728,0.0219055,1.14337,45.883
2083,5.51737e+08,551737,0.0225409,1.14405,45.8824
2084,5.51745e+08,551745,0.0229169,1.14407,45.8825
2085,5.51753e+08,551753,0.0230823,1.1449,45.883
2086,5.51762e+08,551762,0.023976,1.14511,45.8831
2087,5.5177e+08,551770,0.0234257,1.14493,45.8829
2088,5.51778e+08,551778,0.0233354,1.14478,45.8828
2089,5.51787e+08,551787,0.0232528,1.14521,45.8823
2090,5.51795e+08,551795,0.0236005,1.14569,45.8827
2091,5.51803e+08,551803,0.0237819,1.14502,45.8829
2092,5.51812e+08,551812,0.0242241,1.14499,45.8829
2093,5.5182e+08,551820,0.0246057,1.1453,45.8829
2094,5.51828e+08,551828,0.0242041,1.14468,45.8819
2095,5.51837e+08,551837,0.0238853,1.14425,45.8814
2096,5.51845e+08,551845,0.0235708,1.14343,45.8814
2097,5.51853e+08,551853,0.0239195,1.14458,45.8805
2098,5.51862e+08,551862,0.0243408,1.14457,45.8805
2099,5.5187e+08,551870,0.0247175,1.14501,45.8803
2100,5.51878e+08,551878,0.0249538,1.14466,45.8807
2101,5.51887e+08,551887,0.0251438,1.14465,45.8803
2102,5.51895e+08,551895,0.0253977,1.14472,45.8803
2103,5.51903e+08,551903,0.0251302,1.14482,45.88
2104,5.51912e+08,551912,0.0250991,1.14382,45.8803
2105,5.5192e+08,551920,0.0246506,1.14403,45.8807
2106,5.51928e+08,551928,0.0249576,1.14437,45.8809
2107,5.51937e+08,551937,0.0253226,1.14539,45.8807
2108,5.51945e+08,551945,0.02524,1.14611,45.8812
2109,5.51953e+08,551953,0.0249556,1.14705,45.8813
2110,5.51962e+08,551962,0.0251817,1.14688,45.8809
2111,5.5197e+08,551970,0.0246509,1.14709,45.8809
2112,5.51978e+08,551978,0.0244431,1.14701,45.8813
2113,5.51987e+08,551987,0.0244543,1.14726,45.8806
2114,5.51995e+08,551995,0.0248259,1.14765,45.8804
2115,5.52003e+08,552003,0.0247402,1.14716,45.8798
2116,5.52012e+08,552012,0.0245463,1.14571,45.8806
2117,5.5202e+08,552020,0.0240648,1.14485,45.8809
2118,5.52028e+08,552028,0.0245758,1.14425,45.8808
2119,5.52037e+08,552037,0.0241274,1.14531,45.8807
2120,5.52045e+08,552045,0.0240071,1.14552,45.8804
2121,5.52053e+08,552053,0.0238159,1.14584,45.8797
2122,5.52062e+08,552062,0.0241949,1.14584,45.8798
2123,5.5207e+08,552070,0.0239509,1.14597,45.8795
2124,5.52078e+08,552078,0.0233379,1.14597,45.8792
2125,5.52087e+08,552087,0.0230181,1.14594,45.8795
2126,5.52095e+08,552095,0.023132,1.14605,45.878
2127,5.52103e+08,552103,0.0234344,1.14587,45.8773
2128,5.52112e+08,552112,0.0235374,1.14618,45.8781
2129,5.5212e+08,552120,0.0237181,1.14601,45.8788
2130,5.52128e+08,552128,0.0241978,1.14581,45.8782
2131,5.52137e+08,552137,0.0255603,1.14634,45.8786
2132,5.52145e+08,552145,0.0254434,1.14639,45.8787
2133,5.52153e+08,552153,0.0252773,1.1466,45.8783
2134,5.52162e+08,552162,0.0246981,1.1462,45.8786
2135,5.5217e+08,552170,0.0247774,1.14617,45.8785
2136,5.52178e+08,552178,0.0246002,1.14633,45.8787
2137,5.52187e+08,552187,0.0245848,1.14608,45.8785
2138,5.52195e+08,552195,0.0245458,1.14661,45.8783
2139,5.52203e+08,552203,0.0240974,1.14664,45.8781
2140,5.52212e+08,552212,0.0241254,1.14742,45.8772
2141,5.5222e+08,552220,0.0236907,1.14773,45.8775
2142,5.52228e+08,552228,0.023271,1.14749,45.8777
2143,5.52237e+08,552237,0.0234221,1.14742,45.8778
2144,5.52245e+08,552245,0.0236355,1.14732,45.8769
2145,5.52253e+08,552253,0.02376,1.14808,45.8777
2146,5.52262e+08,552262,0.0236984,1.1483,45.8784
2147,5.5227e+08,552270,0.023821,1.14726,45.8793
2148,5.52278e+08,552278,0.0234037,1.14663,45.8791
2149,5.52287e+08,552287,0.023969,1.14653,45.8787
2150,5.52295e+08,552295,0.024693,1.14712,45.8788
2151,5.52303e+08,552303,0.0244207,1.14696,45.8791
2152,5.52312e+08,552312,0.0239028,1.14592,45.8792
2153,5.5232e+08,552320,0.0237443,1.14646,45.8794
2154,5.52328e+08,552328,0.023504,1.14597,45.8791
2155,5.52337e+08,552337,0.0244273,1.14503,45.8787
2156,5.52345e+08,552345,0.0245496,1.14505,45.8794
2157,5.52353e+08,552353,0.0241652,1.14478,45.8784
2158,5.52362e+08,552362,0.0243918,1.14449,45.8783
2159,5.5237e+08,552370,0.0238467,1.14665,45.8804
2160,5.52378e+08,552378,0.0236964,1.147,45.8805
2161,5.52387e+08,552387,0.0231848,1.14606,45.8813
2162,5.52395e+08,552395,0.023116,1.1457,45.8819
2163,5.52403e+08,552403,0.0230304,1.14583,45.8816
2164,5.52412e+08,552412,0.0233158,1.14632,45.8815
2165,5.5242e+08,552420,0.0233444,1.14607,45.881
2166,5.52428e+08,552428,0.0231053,1.14589,45.8814
2167,5.52437e+08,552437,0.0219882,1.14558,45.8808
2168,5.52445e+08,552445,0.0226104,1.1457,45.8806
2169,5.52453e+08,552453,0.022726,1.14552,45.8797
2170,5.52462e+08,552462,0.0232275,1.14491,45.8799
2171,5.5247e+08,552470,0.0227086,1.14456,45.8802
2172,5.52478e+08,552478,0.0226255,1.14491,45.8793
2173,5.52487e+08,552487,0.0219608,1.14511,45.8789
2174,5.52495e+08,552495,0.0219936,1.14433,45.8793
2175,5.52503e+08,552503,0.0224018,1.14415,45.8791
2176,5.52512e+08,552512,0.0220705,1.144,45.8787
2177,5.5252e+08,552520,0.0216314,1.14482,45.8782
2178,5.52528e+08,552528,0.0212491,1.14446,45.8784
2179,5.52537e+08,552537,0.0209634,1.14514,45.8785
2180,5.52545e+08,552545,0.0208528,1.14615,45.8786
2181,5.52553e+08,552553,0.0210867,1.14533,45.8784
2182,5.52562e+08,552562,0.0197067,1.14533,45.8783
2183,5.5257e+08,552570,0.018538,1.14503,45.8776
2184,5.52578e+08,552578,0.0188212,1.14447,45.8769
2185,5.52587e+08,552587,0.0186259,1.14462,45.8768
2186,5.52595e+08,552595,0.018585,1.14535,45.8763
2187,5.52603e+08,552603,0.0180036,1.14593,45.8763
2188,5.52612e+08,552612,0.0185989,1.14606,45.8762
2189,5.5262e+08,552620,0.0189325,1.14568,45.877
2190,5.52628e+08,552628,0.0191286,1.14633,45.8766
2191,5.52637e+08,552637,0.019094,1.14583,45.8768
2192,5.52645e+08,552645,0.0185032,1.14586,45.8767
2193,5.52653e+08,552653,0.0188653,1.14519,45.8761
2194,5.52662e+08,552662,0.0188805,1.14521,45.8771
2195,5.5267e+08,552670,0.0195738,1.14484,45.8778
2196,5.52678e+08,552678,0.0195462,1.14396,45.8786
2197,5.52687e+08,552687,0.0197983,1.14407,45.8794
2198,5.52695e+08,552695,0.0203926,1.14506,45.8795
2199,5.52703e+08,552703,0.0197802,1.14508,45.879
2200,5.52712e+08,552712,0.0204081,1.14475,45.8791
2201,5.5272e+08,552720,0.0196956,1.14572,45.8784
2202,5.52728e+08,552728,0.0195159,1.14556,45.8795
2203,5.52737e+08,552737,0.0197063,1.14582,45.8793
2204,5.52745e+08,552745,0.0192083,1.14544,45.8789
2205,5.52753e+08,552753,0.0182781,1.14551,45.8787
2206,5.52762e+08,552762,0.0176458,1.14554,45.8794
2207,5.5277e+08,552770,0.0169245,1.14533,45.8796
2208,5.52778e+08,552778,0.0169826,1.14574,45.8795
2209,5.52787e+08,552787,0.0169142,1.14593,45.8785
2210,5.52795e+08,552795,0.0163874,1.14574,45.8775
2211,5.52803e+08,552803,0.0167132,1.1463,45.8785
2212,5.52812e+08,552812,0.0160692,1.14651,45.8787
2213,5.5282e+08,552820,0.0157417,1.14662,45.8794
2214,5.52828e+08,552828,0.0157934,1.14711,45.8798
2215,5.52837e+08,552837,0.0167893,1.1466,45.8798
2216,5.52845e+08,552845,0.0161632,1.14736,45.88
2217,5.52853e+08,552853,0.0153482,1.14779,45.8803
2218,5.52862e+08,552862,0.0155838,1.14674,45.8799
2219,5.5287e+08,552870,0.015148,1.14616,45.8801
2220,5.52878e+08,552878,0.0146315,1.14587,45.8807
2221,5.52887e+08,552887,0.0141648,1.14555,45.8814
2222,5.52895e+08,552895,0.0141986,1.14475,45.8818
2223,5.52903e+08,552903,0.0137754,1.14451,45.8818
2224,5.52912e+08,552912,0.0140654,1.14388,45.8816
2225,5.5292e+08,552920,0.0141848,1.14406,45.8825
2226,5.52928e+08,552928,0.0135061,1.14358,45.8825
2227,5.52937e+08,552937,0.0134255,1.14391,45.8821
2228,5.52945e+08,552945,0.0129756,1.14358,45.8816
2229,5.52953e+08,552953,0.0129641,1.14338,45.8806
2230,5.52962e+08,552962,0.0123769,1.14366,45.8806
2231,5.5297e+08,552970,0.0123917,1.14397,45.8804
2232,5.52978e+08,552978,0.0123545,1.14398,45.8806
2233,5.52987e+08,552987,0.0122557,1.14499,45.8801
2234,5.52995e+08,552995,0.0111428,1.14434,45.8807
2235,5.53003e+08,553003,0.0115166,1.14468,45.8811
2236,5.53012e+08,553012,0.0116668,1.14411,45.8813
2237,5.5302e+08,553020,0.0124832,1.143,45.8816
2238,5.53028e+08,553028,0.0130167,1.14295,45.8812
2239,5.53037e+08,553037,0.0131611,1.14238,45.8806
2240,5.53045e+08,553045,0.0133125,1.14271,45.8805
2241,5.53053e+08,553053,0.0129269,1.14251,45.8806
2242,5.53062e+08,553062,0.0123196,1.14198,45.8802
2243,5.5307e+08,553070,0.0122884,1.1416,45.8794
2244,5.53078e+08,553078,0.01224,1.14066,45.8793
2245,5.53087e+08,553087,0.0119002,1.14056,45.8799
2246,5.53095e+08,553095,0.0118822,1.13971,45.8799
2247,5.53103e+08,553103,0.0115928,1.14005,45.8801
2248,5.53112e+08,553112,0.0112485,1.14002,45.8797
2249,5.5312e+08,553120,0.0113791,1.13958,45.8797
2250,5.53128e+08,553128,0.0122324,1.13923,45.8794
2251,5.53137e+08,553137,0.0125039,1.14022,45.8789
2252,5.53145e+08,553145,0.0126323,1.1398,45.8785
2253,5.53153e+08,553153,0.0126834,1.13905,45.8782
2254,5.53162e+08,553162,0.0122294,1.13924,45.8776
2255,5.5317e+08,553170,0.0124818,1.13906,45.8776
2256,5.53178e+08,553178,0.0129003,1.1401,45.8774
2257,5.53187e+08,553187,0.0127972,1.14067,45.8785
2258,5.53195e+08,553195,0.0128633,1.14076,45.8782
2259,5.53203e+08,553203,0.0126217,1.14025,45.8783
2260,5.53212e+08,553212,0.0122428,1.14009,45.8783
2261,5.5322e+08,553220,0.0120707,1.13985,45.879
2262,5.53228e+08,553228,0.0120064,1.13963,45.879
2263,5.53237e+08,553237,0.0119318,1.13874,45.8786
2264,5.53245e+08,553245,0.0114139,1.13823,45.8786
2265,5.53253e+08,553253,0.011126,1.13859,45.8777
2266,5.53262e+08,553262,0.0111254,1.13895,45.8778
2267,5.5327e+08,553270,0.0109062,1.13957,45.878
2268,5.53278e+08,553278,0.0120158,1.13983,45.8783
2269,5.53287e+08,553287,0.0124007,1.14064,45.8797
2270,5.53295e+08,553295,0.0126597,1.14128,45.8798
2271,5.53303e+08,553303,0.0135351,1.14091,45.88
2272,5.53312e+08,553312,0.0131061,1.1402,45.8806
2273,5.5332e+08,553320,0.0136828,1.14068,45.8794
2274,5.53328e+08,553328,0.013132,1.14056,45.8793
2275,5.53337e+08,553337,0.0133776,1.14097,45.88
2276,5.53345e+08,553345,0.0125739,1.14173,45.8805
2277,5.53353e+08,553353,0.0127311,1.14157,45.8804
2278,5.53362e+08,553362,0.0131758,1.14152,45.881
2279,5.5337e+08,553370,0.0137942,1.14107,45.881
2280,5.53378e+08,553378,0.0135724,1.14075,45.8817
2281,5.53387e+08,553387,0.0136241,1.14074,45.8819
2282,5.53395e+08,553395,0.0133908,1.14125,45.8822
2283,5.53403e+08,553403,0.0131138,1.14145,45.8824
2284,5.53412e+08,553412,0.0128084,1.14182,45.8823
2285,5.5342e+08,553420,0.0128261,1.14165,45.8819
2286,5.53428e+08,553428,0.0130579,1.14202,45.8823
2287,5.53437e+08,553437,0.0124543,1.14208,45.8821
2288,5.53445e+08,553445,0.0125918,1.1414,45.8816
2289,5.53453e+08,553453,0.0125287,1.14181,45.882
2290,5.53462e+08,553462,0.0120906,1.14178,45.8824
2291,5.5347e+08,553470,0.0118728,1.14165,45.8822
2292,5.53478e+08,553478,0.0123781,1.14123,45.883
2293,5.53487e+08,553487,0.0118464,1.14203,45.8826
2294,5.53495e+08,553495,0.0113906,1.14153,45.8821
2295,5.53503e+08,553503,0.0119623,1.14138,45.8827
2296,5.53512e+08,553512,0.0113285,1.14086,45.8824
2297,5.5352e+08,553520,0.0111228,1.14029,45.883
2298,5.53528e+08,553528,0.0102603,1.14001,45.8825
2299,5.53537e+08,553537,0.00999713,1.14011,45.8829
2300,5.53545e+08,553545,0.010458,1.14042,45.8837
2301,5.53553e+08,553553,0.00932263,1.14077,45.8836
2302,5.53562e+08,553562,0.00948738,1.14089,45.884
2303,5.5357e+08,553570,0.00986314,1.14113,45.8839
2304,5.53578e+08,553578,0.0103341,1.14073,45.8841
2305,5.53587e+08,553587,0.0107254,1.14056,45.8853
2306,5.53595e+08,553595,0.0106745,1.13972,45.8856
2307,5.53603e+08,553603,0.0104973,1.13973,45.886
2308,5.53612e+08,553612,0.0103223,1.13881,45.8854
2309,5.5362e+08,553620,0.0113793,1.13798,45.8857
2310,5.53628e+08,553628,0.0114098,1.13812,45.8855
2311,5.53637e+08,553637,0.0114747,1.13864,45.8858
2312,5.53645e+08,553645,0.0116702,1.13907,45.8857
2313,5.53653e+08,553653,0.0118044,1.13948,45.8853
2314,5.53662e+08,553662,0.0117008,1.13942,45.8853
2315,5.5367e+08,553670,0.0119576,1.13959,45.8851
2316,5.53678e+08,553678,0.0120759,1.13873,45.8851
2317,5.53687e+08,553687,0.0119321,1.13947,45.8853
2318,5.53695e+08,553695,0.0113679,1.13942,45.8853
2319,5.53703e+08,553703,0.011209,1.14032,45.8859
2320,5.53712e+08,553712,0.0103743,1.14024,45.886
2321,5.5372e+08,553720,0.01046,1.14046,45.8856
2322,5.53728e+08,553728,0.0105578,1.14026,45.885
2323,5.53737e+08,553737,0.0104266,1.13999,45.8846
2324,5.53745e+08,553745,0.0103616,1.14032,45.8841
2325,5.53753e+08,553753,0.00991999,1.14053,45.883
2326,5.53762e+08,553762,0.00853937,1.13948,45.8825
2327,5.5377e+08,553770,0.00825624,1.13946,45.8828
2328,5.53778e+08,553778,0.00806797,1.13934,45.8833
2329,5.53787e+08,553787,0.00729993,1.13929,45.8837
2330,5.53795e+08,553795,0.00821709,1.13982,45.8835
2331,5.53803e+08,553803,0.0075757,1.13971,45.8838
2332,5.53812e+08,553812,0.00807357,1.1398,45.8834
2333,5.5382e+08,553820,0.00811822,1.13939,45.8837
2334,5.53828e+08,553828,0.00817207,1.13956,45.8836
2335,5.53837e+08,553837,0.00724925,1.13862,45.8837
2336,5.53845e+08,553845,0.00683413,1.13853,45.8837
2337,5.53853e+08,553853,0.00675986,1.13837,45.8844
2338,5.53862e+08,553862,0.00643888,1.13783,45.8852
2339,5.5387e+08,553870,0.0065025,1.13854,45.8848
2340,5.53878e+08,553878,0.00656863,1.13805,45.8849
2341,5.53887e+08,553887,0.00701292,1.13829,45.8843
2342,5.53895e+08,553895,0.00686513,1.13888,45.8844
2343,5.53903e+08,553903,0.00644406,1.13932,45.8847
2344,5.53912e+08,553912,0.0066627,1.13959,45.8848
2345,5.5392e+08,553920,0.00665285,1.13894,45.8848
2346,5.53928e+08,553928,0.00676447,1.13887,45.8851
2347,5.53937e+08,553937,0.00761122,1.14014,45.8844
2348,5.53945e+08,553945,0.00806773,1.14004,45.8849
2349,5.53953e+08,553953,0.00783577,1.13959,45.8846
2350,5.53962e+08,553962,0.00737606,1.14003,45.8847
2351,5.5397e+08,553970,0.00742837,1.14003,45.8853
2352,5.53978e+08,553978,0.00726934,1.14009,45.8854
2353,5.53987e+08,553987,0.0066943,1.14072,45.8845
2354,5.53995e+08,553995,0.00578402,1.14066,45.8844
2355,5.54003e+08,554003,0.00650131,1.14038,45.8848
2356,5.54012e+08,554012,0.00722798,1.13997,45.8848
2357,5.5402e+08,554020,0.00666403,1.1405,45.8845
2358,5.54028e+08,554028,0.00657442,1.14077,45.8842
2359,5.54037e+08,554037,0.00606897,1.14046,45.8846
2360,5.54045e+08,554045,0.00624726,1.14036,45.8843
2361,5.54053e+08,554053,0.00619234,1.14036,45.8836
2362,5.54062e+08,554062,0.00690511,1.14028,45.8824
2363,5.5407e+08,554070,0.00712676,1.14099,45.8821
2364,5.54078e+08,554078,0.00730292,1.14068,45.8823
2365,5.54087e+08,554087,0.00719527,1.1407,45.8823
2366,5.54095e+08,554095,0.00721688,1.14053,45.8826
2367,5.54103e+08,554103,0.00763398,1.13974,45.8824
2368,5.54112e+08,554112,0.00748048,1.13978,45.8827
2369,5.5412e+08,554120,0.006895,1.13959,45.8834
2370,5.54128e+08,554128,0.00715003,1.13944,45.8838
2371,5.54137e+08,554137,0.00717008,1.14058,45.8841
2372,5.54145e+08,554145,0.00684854,1.14126,45.8831
2373,5.54153e+08,554153,0.00698058,1.14123,45.8831
2374,5.54162e+08,554162,0.00684465,1.14097,45.8832
2375,5.5417e+08,554170,0.0066473,1.14044,45.884
2376,5.54178e+08,554178,0.0065071,1.14065,45.884
2377,5.54187e+08,554187,0.00543177,1.13942,45.8849
2378,5.54195e+08,554195,0.00563316,1.13882,45.8846
2379,5.54203e+08,554203,0.00562332,1.13846,45.8845
2380,5.54212e+08,554212,0.00555658,1.13878,45.8846
2381,5.5422e+08,554220,0.00614598,1.1388,45.8848
2382,5.54228e+08,554228,0.00551276,1.13785,45.8849
2383,5.54237e+08,554237,0.00518917,1.13716,45.885
2384,5.54245e+08,554245,0.00467683,1.13725,45.8845
2385,5.54253e+08,554253,0.00446732,1.13706,45.8849
2386,5.54262e+08,554262,0.00384532,1.13656,45.8842
2387,5.5427e+08,554270,0.00378461,1.13654,45.8843
2388,5.54278e+08,554278,0.00355675,1.13626,45.884
2389,5.54287e+08,554287,0.00353937,1.13598,45.8842
2390,5.54295e+08,554295,0.00334857,1.1353,45.8837
2391,5.54303e+08,554303,0.0038683,1.13617,45.8844
2392,5.54312e+08,554312,0.00375427,1.13713,45.8842
2393,5.5432e+08,554320,0.00347853,1.1371,45.8847
2394,5.54328e+08,554328,0.00364385,1.13685,45.8848
2395,5.54337e+08,554337,0.00287229,1.13654,45.8846
2396,5.54345e+08,554345,0.00320103,1.13691,45.8845
