timestamp_ms,acc_x,acc_y,acc_z,gyr_x,gyr_y,gyr_z,mag_x,mag_y,mag_z
0,474.877,0,0,0,0,0,0,0,-0.443115
1,475.132,-0.282173,-0.337585,10.2875,0.340964,-1.0885,-7.42139,-4.03589,-0.443848
2,475.386,-0.274977,-0.357249,10.3003,0.321267,-1.04427,3.01538,-4.03345,-0.439209
3,475.64,-0.291664,-0.367813,10.3004,0.155645,-0.980385,-4.44897,-4.03076,-0.442383
4,475.895,-0.279176,-0.354795,10.2913,0.236099,-1.09509,-3.53564,-4.03882,-0.438232
5,476.149,-0.292158,-0.334353,10.3005,0.33269,-1.11476,-7.49609,-4.02759,-0.44043
6,476.403,-0.272087,-0.346698,10.3115,0.286815,-0.991809,-5.58984,-4.03223,-0.441162
7,476.658,-0.266851,-0.368264,10.3189,0.385148,-1.05733,1.53027,-4.02979,-0.44165
8,476.912,-0.274404,-0.343945,10.3135,0.159,-1.08369,-4.64624,-4.03174,-0.445312
9,477.166,-0.267252,-0.369394,10.2787,0.235946,-1.0771,7.82397,-4.02881,-0.438232
10,477.42,-0.285706,-0.339796,10.3173,0.193375,-1.02956,2.27759,-4.03149,-0.441406
11,477.675,-0.274977,-0.357849,10.2899,0.275417,-1.03113,2.96704,-4.03662,-0.443115
12,477.929,-0.282544,-0.362992,10.2845,0.165455,-1.03456,0.376465,-4.03003,-0.443115
13,478.183,-0.280957,-0.362799,10.2808,0.277108,-1.12457,-3.12427,-4.03247,-0.439941
14,478.438,-0.290169,-0.34044,10.3139,0.224522,-1.00006,-3.90942,-4.03369,-0.444092
15,478.692,-0.288667,-0.332829,10.3048,0.258998,-1.07214,-6.69238,-4.03149,-0.445312
16,478.946,-0.292523,-0.343501,10.2902,0.227928,-1.06888,-4.48511,-4.03491,-0.438721
17,479.201,-0.303731,-0.334081,10.283,0.305053,-1.12779,-1.49487,-4.03516,-0.442627
18,479.455,-0.265378,-0.346384,10.2701,0.254132,-1.11314,1.01929,-4.03198,-0.441406
19,479.709,-0.265449,-0.342371,10.2903,0.246063,-1.14754,-2.91187,-4.03442,-0.436768
20,479.963,-0.269004,-0.353014,10.3288,0.267067,-1.04755,5.78027,-4.03052,-0.443359
21,480.218,-0.284025,-0.339911,10.2978,0.314684,-1.09337,-5.91846,-4.03027,-0.441162
22,480.472,-0.28057,-0.346834,10.2741,0.119631,-1.04286,-0.604736,-4.03345,-0.441406
23,480.726,-0.297093,-0.355883,10.309,0.265453,-1.02296,6.77808,-4.03125,-0.444092
24,480.981,-0.28449,-0.371969,10.3017,0.303157,-1.04747,7.72217,-4.03101,-0.442871
25,481.235,-0.297623,-0.369809,10.278,0.304669,-1.04585,1.37158,-4.02881,-0.444336
26,481.489,-0.281278,-0.372985,10.2927,0.355999,-1.09647,1.55298,-4.03833,-0.44165
27,481.744,-0.274083,-0.3578,10.3092,0.324571,-1.01788,4.06641,-4.0354,-0.445312
28,481.998,-0.27625,-0.359223,10.2909,0.290248,-1.05403,6.21777,-4.03564,-0.442139
29,482.252,-0.293116,-0.335118,10.2746,0.123166,-1.05761,-6.2627,-4.03931,-0.440918
30,482.507,-0.289597,-0.329439,10.2929,0.200367,-1.10661,-7.31128,-4.03979,-0.440186
31,482.761,-0.276772,-0.336434,10.3131,0.380615,-1.11937,0.869629,-4.0376,-0.439209
32,483.015,-0.275113,-0.343243,10.2967,0.186843,-1.08873,1.75293,-4.03149,-0.441895
33,483.269,-0.273282,-0.353966,10.3132,0.257282,-1.05741,-0.553711,-4.03271,-0.438721
34,483.524,-0.273746,-0.33353,10.2839,0.322675,-0.971958,-1.18262,-4.0332,-0.445312
35,483.778,-0.283367,-0.335018,10.2584,0.312942,-1.05728,1.89868,-4.03076,-0.443604
36,484.032,-0.279769,-0.323545,10.2914,0.219629,-1.05751,4.06348,-4.03296,-0.444336
37,484.287,-0.303531,-0.358179,10.3008,0.298367,-1.14588,3.26196,-4.03027,-0.442383
38,484.541,-0.265199,-0.348401,10.3007,0.311354,-1.00807,6.42505,-4.03369,-0.44165
39,484.795,-0.289261,-0.346283,10.3046,0.214737,-1.07557,-1.07837,-4.03271,-0.443359
40,485.05,-0.284011,-0.362513,10.2771,0.232539,-1.07721,-7.33569,-4.02954,-0.440674
41,485.304,-0.276858,-0.354831,10.2826,0.167274,-1.10034,-0.449463,-4.03223,-0.443359
42,485.558,-0.284004,-0.356433,10.3267,0.271575,-0.937711,1.84619,-4.03076,-0.443115
43,485.812,-0.286672,-0.334209,10.2791,0.243886,-1.01322,3.15698,-4.03027,-0.438477
44,486.067,-0.266794,-0.337421,10.2772,0.249111,-1.02134,-5.37793,-4.03418,-0.441406
45,486.321,-0.300012,-0.33549,10.2794,0.283306,-1.01963,1.84619,-4.03076,-0.435791
46,486.575,-0.283617,-0.327636,10.3086,0.26325,-0.973853,4.67651,-4.02881,-0.444824
47,486.83,-0.280041,-0.3529,10.316,0.389913,-0.99957,1.75415,-4.03247,-0.443115
48,487.084,-0.280248,-0.352342,10.3252,0.298291,-0.963736,2.2334,-4.03711,-0.441406
49,487.338,-0.29195,-0.341119,10.2887,0.258768,-1.0509,3.20947,-4.03027,-0.440918
50,487.593,-0.295634,-0.359116,10.2944,0.255182,-0.954181,5.15112,-4.03076,-0.439697
51,487.847,-0.292201,-0.367907,10.2999,0.311175,-1.01627,-7.17676,-4.03076,-0.442383
52,488.101,-0.281951,-0.332679,10.2742,0.324468,-1.0654,-3.81958,-4.03076,-0.44165
53,488.355,-0.285534,-0.346891,10.2927,0.379129,-1.17495,-1.65552,-4.03247,-0.443848
54,488.61,-0.26532,-0.329667,10.32,0.330744,-1.00308,-3.60938,-4.03076,-0.438965
55,488.864,-0.282408,-0.329446,10.2818,0.332537,-1.03423,5.62354,-4.03076,-0.439697
56,489.118,-0.278646,-0.349066,10.3002,0.299853,-1.09506,-7.65015,-4.02979,-0.443359
57,489.373,-0.289683,-0.346913,10.3113,0.288429,-1.0196,1.07349,-4.0332,-0.441162
58,489.627,-0.277166,-0.351948,10.3021,0.34601,-1.08328,0.810059,-4.03247,-0.442871
59,489.881,-0.273546,-0.360603,10.3059,0.232897,-1.0083,-4.27319,-4.03687,-0.439209
60,490.136,-0.292222,-0.354988,10.3006,0.306333,-1.05403,0.166748,-4.03027,-0.439453
61,490.39,-0.294189,-0.34908,10.3117,0.254106,-1.03779,5.37598,-4.03369,-0.441895
62,490.644,-0.301964,-0.33971,10.299,0.213405,-1.09698,-5.06323,-4.03369,-0.437744
63,490.898,-0.267345,-0.333623,10.3005,0.3383,-1.10451,2.44263,-4.03711,-0.442871
64,491.153,-0.280384,-0.353508,10.2733,0.229158,-1.00518,-2.82251,-4.03125,-0.441162
65,491.407,-0.282473,-0.325705,10.3008,0.285227,-1.1115,6.56689,-4.03027,-0.438965
66,491.661,-0.28062,-0.343644,10.2972,0.270192,-1.03612,-7.54419,-4.03076,-0.440918
67,491.916,-0.297129,-0.354423,10.3048,0.318577,-1.0406,-5.42285,-4.03979,-0.436768
68,492.17,-0.295684,-0.348515,10.2957,0.191505,-0.995523,0.653076,-4.03271,-0.443359
69,492.424,-0.270106,-0.349796,10.3157,0.308152,-1.04739,0.390869,-4.03247,-0.44165
70,492.679,-0.261386,-0.354867,10.29,0.265556,-1.04596,4.58789,-4.03296,-0.442871
71,492.933,-0.261544,-0.334303,10.3138,0.263225,-1.02316,7.14209,-4.02905,-0.442871
72,493.187,-0.274776,-0.332314,10.3012,0.385174,-1.07652,-7.17651,-4.03101,-0.438477
73,493.442,-0.271372,-0.339131,10.2867,0.314965,-1.03743,-6.16284,-4.03589,-0.443359
74,493.696,-0.287408,-0.360754,10.3236,0.273035,-0.996829,-0.987793,-4.02979,-0.44165
75,493.95,-0.277166,-0.347564,10.2961,0.172858,-0.949853,5.67505,-4.03027,-0.446289
76,494.204,-0.286886,-0.360382,10.267,0.317757,-1.00139,-5.69458,-4.03271,-0.442627
77,494.459,-0.281808,-0.328716,10.2852,0.242477,-1.01494,6.73901,-4.0332,-0.438477
78,494.713,-0.286936,-0.344838,10.322,0.374416,-1.10592,-0.864502,-4.03564,-0.439941
79,494.967,-0.28002,-0.351669,10.2927,0.363684,-0.981461,-4.80005,-4.03394,-0.439209
80,495.222,-0.247496,-0.345325,10.2869,0.310124,-1.08177,3.74927,-4.03345,-0.444824
81,495.476,-0.277158,-0.32878,10.2873,0.230669,-1.03318,3.52393,-4.03003,-0.437744
82,495.73,-0.295219,-0.345132,10.3096,0.294807,-1.00813,4.63916,-4.03223,-0.441406
83,495.985,-0.295942,-0.350374,10.2695,0.218195,-1.07416,7.1582,-4.03271,-0.438232
84,496.239,-0.270213,-0.360754,10.2802,0.334612,-1.01266,2.38916,-4.03638,-0.444336
85,496.493,-0.283267,-0.349438,10.2933,0.352644,-1.07495,6.79102,-4.03296,-0.443359
86,496.747,-0.298316,-0.340032,10.2844,0.312045,-1.10633,-6.11157,-4.03467,-0.438232
87,497.002,-0.274376,-0.342936,10.3006,0.28848,-1.06722,3.52539,-4.03125,-0.441895
88,497.256,-0.26924,-0.326005,10.3042,0.244091,-0.980487,7.37109,-4.03516,-0.440674
89,497.51,-0.271336,-0.336742,10.297,0.25385,-1.02152,5.05835,-4.03174,-0.443359
90,497.765,-0.277166,-0.334667,10.2935,0.20946,-0.987352,-3.38574,-4.0332,-0.440918
91,498.019,-0.288531,-0.34745,10.2755,0.331589,-1.05531,-3.06689,-4.03613,-0.439697
92,498.273,-0.282838,-0.359695,10.292,0.285663,-1.03756,3.38672,-4.03662,-0.444824
93,498.528,-0.288274,-0.361169,10.3105,0.200214,-1.05131,4.48438,-4.03442,-0.439941
94,498.782,-0.306943,-0.363071,10.2981,0.359893,-1.02424,-2.24731,-4.02954,-0.443359
95,499.036,-0.302029,-0.342399,10.2943,0.264659,-1.15753,-6.74414,-4.03223,-0.440186
96,499.29,-0.306442,-0.331277,10.2578,0.278286,-0.963889,-1.65308,-4.03442,-0.444336
97,499.545,-0.276836,-0.339538,10.2923,0.231258,-1.08072,3.90454,-4.03174,-0.441895
98,499.799,-0.260049,-0.353594,10.3105,0.240249,-1.13794,0.865479,-4.03467,-0.443115
99,500.053,-0.26565,-0.364408,10.2979,0.281129,-1.04286,-4.50391,-4.02881,-0.444824
100,500.308,-0.271987,-0.345925,10.2742,0.209717,-1.08259,4.67847,-4.03052,-0.440186
101,500.562,-0.275306,-0.351112,10.3018,0.31494,-0.995113,-3.92822,-4.02783,-0.439941
102,500.816,-0.284533,-0.35815,10.3075,0.327465,-0.996368,-0.710938,-4.03247,-0.44043
103,501.071,-0.279748,-0.32466,10.3129,0.289992,-1.01471,-1.07764,-4.0332,-0.439209
104,501.325,-0.281493,-0.337106,10.3222,0.280899,-1.14598,-6.07446,-4.03125,-0.441895
105,501.579,-0.283653,-0.336849,10.3059,0.296703,-0.991604,7.47705,-4.03564,-0.439697
106,501.834,-0.267767,-0.33079,10.2928,0.322112,-1.12918,0.0249023,-4.03369,-0.445801
107,502.088,-0.258303,-0.350332,10.2983,0.235612,-0.995472,0.389404,-4.03198,-0.442871
108,502.342,-0.269877,-0.341112,10.2894,0.250622,-1.0413,-7.21753,-4.03149,-0.439941
109,502.596,-0.289626,-0.350153,10.3173,0.277005,-1.11496,7.98267,-4.02979,-0.441895
110,502.851,-0.310641,-0.344825,10.2775,0.370933,-1.06973,-5.95435,-4.03442,-0.440186
111,503.105,-0.288524,-0.351255,10.2901,0.204671,-1.05812,-5.49829,-4.03076,-0.443848
112,503.359,-0.281421,-0.349073,10.29,0.236663,-1.08556,-1.6001,-4.03467,-0.438477
113,503.614,-0.272559,-0.348665,10.2826,0.362762,-1.01391,-3.22241,-4.03784,-0.444824
114,503.868,-0.26776,-0.344538,10.2624,0.203159,-1.11232,-2.66675,-4.02979,-0.439453
115,504.122,-0.275048,-0.333344,10.2809,0.242323,-1.09068,-1.82739,-4.02979,-0.440674
116,504.377,-0.261937,-0.341921,10.2973,0.306948,-1.0686,2.80566,-4.03394,-0.441895
117,504.631,-0.296922,-0.367878,10.2725,0.303337,-1.03095,0.445068,-4.03369,-0.439697
118,504.885,-0.289955,-0.350847,10.2815,0.162048,-1.05359,-3.7666,-4.03101,-0.444336
119,505.139,-0.286257,-0.350554,10.2944,0.294115,-1.07728,-7.86279,-4.02783,-0.440186
120,505.394,-0.29037,-0.341141,10.2872,0.221294,-1.11056,6.14697,-4.03003,-0.440918
121,505.648,-0.292329,-0.340919,10.2873,0.322112,-1.17188,-1.24878,-4.03101,-0.444824
122,505.902,-0.275377,-0.362156,10.2927,0.283358,-1.11663,0.427734,-4.02905,-0.442139
123,506.157,-0.253175,-0.33373,10.3362,0.276185,-1.1115,-7.94873,-4.03394,-0.441895
124,506.411,-0.264648,-0.324474,10.3254,0.250366,-1.13463,6.11255,-4.03516,-0.438232
125,506.665,-0.275663,-0.342764,10.3112,0.359739,-1.02244,-5.81396,-4.02979,-0.441895
126,506.92,-0.270842,-0.371762,10.2619,0.397418,-1.03359,-1.04077,-4.02954,-0.439941
127,507.174,-0.301292,-0.375246,10.3047,0.0913275,-1.09176,-6.37036,-4.03735,-0.440674
128,507.428,-0.295262,-0.358794,10.2625,0.317911,-1.09493,-5.28906,-4.03027,-0.445801
129,507.682,-0.295041,-0.356454,10.2827,0.260971,-1.09042,4.53369,-4.03174,-0.440186
130,507.937,-0.265192,-0.34619,10.3261,0.320088,-1.07997,-6.8479,-4.0332,-0.441895
131,508.191,-0.278446,-0.34795,10.31,0.323751,-1.01125,-5.44604,-4.03052,-0.44458
132,508.445,-0.275363,-0.353079,10.2899,0.208257,-1.07785,5.36157,-4.03125,-0.441895
133,508.7,-0.272523,-0.330854,10.2788,0.209307,-1.01883,5.78125,-4.03125,-0.441895
134,508.954,-0.275306,-0.334074,10.3303,0.18838,-1.07316,-0.146973,-4.03101,-0.44165
135,509.208,-0.286622,-0.348844,10.3087,0.32306,-1.12108,4.8877,-4.03003,-0.443359
136,509.463,-0.288574,-0.365052,10.2924,0.271882,-1.20018,3.79932,-4.03174,-0.439209
137,509.717,-0.288002,-0.36458,10.3182,0.230746,-1.14964,-3.64648,-4.03394,-0.445068
138,509.971,-0.308624,-0.357457,10.3059,0.232539,-1.21045,-7.43848,-4.03125,-0.438477
139,510.226,-0.26502,-0.356398,10.2885,0.229107,-1.09258,4.625,-4.02954,-0.442627
140,510.48,-0.269319,-0.339781,10.2813,0.263916,-1.10034,-3.76733,-4.03052,-0.443359
141,510.734,-0.262373,-0.31544,10.2921,0.205516,-1.07777,-5.42944,-4.03442,-0.439209
142,510.988,-0.271221,-0.348415,10.2834,0.273726,-1.14093,-2.80444,-4.03638,-0.442871
143,511.243,-0.277473,-0.339173,10.2616,0.269936,-1.10164,5.90283,-4.03564,-0.443115
144,511.497,-0.270642,-0.343859,10.322,0.32539,-1.04404,-0.410645,-4.03003,-0.439453
145,511.751,-0.289769,-0.334788,10.3042,0.167479,-1.08814,0.337646,-4.03174,-0.442871
146,512.011,-0.294196,-0.365718,10.3284,0.242375,-1.06939,-4.8689,-4.03076,-0.440674
147,512.52,-0.278911,-0.339574,10.3078,0.256667,-1.1446,-0.134277,-4.03223,-0.444336
148,513.029,-0.299204,-0.348937,10.2956,0.312558,-1.04731,0.324707,-4.03052,-0.438721
149,513.537,-0.278424,-0.368135,10.3137,0.256309,-1.09867,-5.32715,-4.03296,-0.442871
150,514.046,-0.282552,-0.360639,10.3065,0.171167,-1.09132,3.33032,-4.03394,-0.441895
151,514.554,-0.271515,-0.350954,10.3228,0.252928,-1.10651,2.76196,-4.04053,-0.437256
152,515.063,-0.270284,-0.343365,10.31,0.33894,-1.17979,-4.27954,-4.03149,-0.443359
153,515.572,-0.287373,-0.372935,10.2576,0.185844,-1.1011,7.10571,-4.03296,-0.440674
154,516.08,-0.31102,-0.360303,10.2819,0.255822,-1.10164,5.12036,-4.03882,-0.446777
155,516.589,-0.292938,-0.346727,10.2907,0.254234,-1.00344,4.85449,-4.03613,-0.44043
156,517.097,-0.275935,-0.349509,10.3197,0.280668,-1.11486,1.00732,-4.03101,-0.441406
157,517.606,-0.278482,-0.3328,10.3106,0.281462,-1.09045,2.52661,-4.02954,-0.444336
158,518.115,-0.268253,-0.315798,10.3012,0.255925,-1.01368,-3.55908,-4.02954,-0.439697
159,518.623,-0.283253,-0.323229,10.2907,0.276621,-1.07728,-2.40405,-4.03027,-0.440918
160,519.132,-0.259255,-0.346197,10.283,0.345011,-1.10579,-2.4939,-4.03345,-0.440674
161,519.64,-0.287265,-0.364487,10.3224,0.344524,-1.07139,-0.500732,-4.03296,-0.443359
162,520.149,-0.295849,-0.353472,10.2897,0.275776,-1.07549,7.78833,-4.0332,-0.441895
163,520.658,-0.301571,-0.35697,10.2845,0.2007,-0.925826,-1.04077,-4.02954,-0.443604
164,521.166,-0.268024,-0.352027,10.3258,0.283255,-1.05093,1.47949,-4.03101,-0.443359
165,521.675,-0.286092,-0.343251,10.2805,0.175829,-1.08983,-7.84521,-4.03247,-0.439209
166,522.183,-0.282401,-0.346612,10.2842,0.273829,-1.03448,-6.68994,-4.03394,-0.442871
167,522.692,-0.277516,-0.311241,10.3022,0.209973,-1.10881,5.74805,-4.03784,-0.436035
168,523.201,-0.288331,-0.333308,10.2936,0.144093,-1.05915,-6.16846,-4.03149,-0.442383
169,523.709,-0.269755,-0.343658,10.3006,0.203492,-1.0665,-7.63525,-4.03296,-0.442871
170,524.218,-0.278954,-0.349159,10.301,0.236432,-1.0217,-5.37549,-4.03613,-0.44458
171,524.726,-0.286572,-0.345396,10.3031,0.13856,-1.09188,6.47852,-4.03442,-0.444336
172,525.235,-0.306406,-0.347506,10.3184,0.318603,-1.02598,-7.49219,-4.03027,-0.437256
173,525.744,-0.286629,-0.355847,10.3052,0.270166,-1.1625,-6.32446,-4.03223,-0.439941
174,526.252,-0.282652,-0.346577,10.2594,0.223087,-1.05152,-7.94946,-4.03345,-0.4375
175,526.761,-0.295405,-0.337371,10.2781,0.299264,-1.20991,-3.55884,-4.02954,-0.439697
176,527.269,-0.262753,-0.332128,10.3359,0.267682,-1.11504,6.72583,-4.03125,-0.443848
177,527.778,-0.270957,-0.341419,10.2997,0.171372,-1.00638,-5.43335,-4.03198,-0.441162
178,528.287,-0.286042,-0.352735,10.2837,0.254311,-1.22013,2.26685,-4.03125,-0.441406
179,528.795,-0.281572,-0.352149,10.3112,0.352695,-1.08602,3.79932,-4.03174,-0.442383
180,529.304,-0.285313,-0.346262,10.3187,0.255694,-1.16919,3.11914,-4.03296,-0.442871
181,529.812,-0.277981,-0.349438,10.3168,0.185665,-1.13917,-6.07593,-4.03052,-0.443359
182,530.321,-0.283961,-0.327393,10.3224,0.287174,-1.12139,-3.81958,-4.03076,-0.442139
183,530.83,-0.278918,-0.321463,10.315,0.237713,-1.08597,3.52515,-4.03101,-0.443359
184,531.338,-0.285878,-0.349352,10.2441,0.299955,-1.09004,-0.566895,-4.03101,-0.439697
185,531.847,-0.280477,-0.35393,10.3045,0.277825,-1.21686,0.689453,-4.02881,-0.442383
186,532.356,-0.277552,-0.342643,10.288,0.190224,-1.10139,2.79053,-4.03076,-0.442871
187,532.864,-0.2606,-0.354745,10.2969,0.210536,-1.01048,-3.74561,-4.03833,-0.439209
188,533.373,-0.29439,-0.353729,10.2796,0.255054,-1.11509,6.42432,-4.0332,-0.443359
189,533.881,-0.283954,-0.358336,10.3216,0.265402,-1.03464,5.84692,-4.03296,-0.439697
190,534.39,-0.287194,-0.347342,10.2924,0.237252,-1.17946,0.220459,-4.03076,-0.443848
191,534.899,-0.269519,-0.338916,10.3396,0.34332,-1.12178,5.32935,-4.03833,-0.439941
192,535.407,-0.276929,-0.336842,10.3417,0.302261,-1.18325,0.917969,-4.03442,-0.444824
193,535.916,-0.269655,-0.329338,10.2866,0.2132,-1.10274,0.0627441,-4.03076,-0.443359
194,536.424,-0.284326,-0.338723,10.2817,0.345395,-0.977618,-1.39014,-4.03516,-0.441162
195,536.933,-0.267008,-0.341219,10.3161,0.345216,-1.07972,0.795654,-4.02979,-0.447754
196,537.442,-0.288167,-0.360031,10.2713,0.306974,-1.10961,1.37476,-4.03125,-0.442383
197,537.95,-0.303459,-0.354251,10.3194,0.303004,-1.01601,2.7522,-4.03369,-0.439453
198,538.459,-0.293188,-0.353701,10.3046,0.307435,-1.16255,3.46753,-4.02734,-0.441406
199,538.967,-0.288438,-0.342314,10.2916,0.220039,-1.13556,-1.77393,-4.03052,-0.438721
200,539.476,-0.255657,-0.342972,10.2871,0.325621,-1.14537,5.95044,-4.03149,-0.442871
201,539.985,-0.262145,-0.351784,10.3076,0.271959,-1.10039,-3.29492,-4.03052,-0.442139
202,540.493,-0.263432,-0.3278,10.2929,0.282845,-1.08679,-1.23291,-4.03442,-0.444336
203,541.002,-0.261014,-0.330891,10.3131,0.284792,-1.11304,-6.58496,-4.03394,-0.439941
204,541.51,-0.287609,-0.331556,10.2866,0.313864,-1.06663,2.28223,-4.03491,-0.443359
205,542.019,-0.289468,-0.340411,10.2832,0.202621,-1.06209,0.744385,-4.03052,-0.442871
206,542.528,-0.304532,-0.338873,10.2783,0.240863,-1.14163,-5.7981,-4.03369,-0.440674
207,543.036,-0.297666,-0.350969,10.3113,0.208692,-1.06499,7.79004,-4.03418,-0.440918
208,543.545,-0.293467,-0.367477,10.2619,0.289505,-0.953772,-7.26392,-4.03613,-0.442627
209,544.053,-0.268053,-0.347886,10.283,0.274802,-1.06922,-6.12793,-4.03052,-0.440918
210,544.562,-0.280205,-0.353265,10.3037,0.247779,-1.01384,-0.672119,-4.03076,-0.44043
211,545.071,-0.272387,-0.343773,10.2797,0.256949,-1.07439,-4.23901,-4.03076,-0.437744
212,545.579,-0.2766,-0.348794,10.3184,0.26699,-1.1186,-4.45044,-4.02979,-0.442383
213,546.088,-0.289883,-0.329131,10.2712,0.326287,-1.13246,0.00878906,-4.02979,-0.441162
214,546.596,-0.288817,-0.333973,10.3006,0.248625,-1.02516,-2.70459,-4.03247,-0.443359
215,547.105,-0.278339,-0.337106,10.2894,0.202621,-0.958433,7.00513,-4.03589,-0.440674
216,547.614,-0.295277,-0.33745,10.2864,0.253722,-1.03533,1.5813,-4.02881,-0.441406
217,548.122,-0.27248,-0.352814,10.3024,0.298496,-1.0604,5.37427,-4.03271,-0.441895
218,548.631,-0.275928,-0.321521,10.2895,0.268373,-1.1907,-3.24341,-4.03027,-0.438721
219,549.14,-0.27032,-0.34642,10.3227,0.165378,-1.16266,4.11353,-4.03174,-0.442383
220,549.648,-0.274569,-0.340997,10.3119,0.260484,-1.06604,-5.9585,-4.03149,-0.44165
221,550.157,-0.268475,-0.360625,10.3157,0.251391,-1.08412,4.27319,-4.03296,-0.444824
222,550.665,-0.283961,-0.359159,10.298,0.277953,-1.02641,-1.49878,-4.03174,-0.441406
223,551.174,-0.260886,-0.337886,10.3026,0.26325,-1.09209,-7.42383,-4.03394,-0.440186
224,551.683,-0.286557,-0.360553,10.2855,0.105287,-1.17218,3.52271,-4.0293,-0.441406
225,552.191,-0.287859,-0.343794,10.3166,0.273778,-1.02175,1.89771,-4.03003,-0.439209
226,552.7,-0.282516,-0.336327,10.2743,0.0929925,-1.12777,-6.32349,-4.03271,-0.442871
227,553.208,-0.264476,-0.319117,10.2847,0.169195,-1.02541,-7.44312,-4.02783,-0.440918
228,553.717,-0.267853,-0.3171,10.3013,0.0884588,-1.16724,5.05835,-4.03174,-0.439941
229,554.226,-0.294518,-0.339911,10.3045,0.0882538,-0.931026,-2.28369,-4.03345,-0.442383
230,554.734,-0.273739,-0.37217,10.3023,0.217657,-1.02565,-3.49072,-4.0332,-0.439209
231,555.243,-0.28057,-0.361348,10.2824,0.161485,-1.05136,5.30859,-4.03076,-0.444336
232,555.751,-0.280477,-0.3482,10.3025,0.200803,-1.16353,3.90845,-4.03467,-0.441162
233,556.26,-0.278568,-0.339102,10.264,0.249265,-1.14355,4.9397,-4.02954,-0.44043
234,556.769,-0.29454,-0.351755,10.318,0.144323,-1.06176,0.00805664,-4.02905,-0.443848
235,557.277,-0.273732,-0.323444,10.3171,0.117505,-1.1748,2.44019,-4.03516,-0.440674
236,557.786,-0.275649,-0.331255,10.2587,0.131952,-1.11409,5.11157,-4.03198,-0.445801
237,558.294,-0.274211,-0.332586,10.2991,0.0749088,-1.11665,-2.54614,-4.0332,-0.440674
238,558.803,-0.287623,-0.345668,10.3236,0.0388184,-1.17818,1.00635,-4.03027,-0.442871
239,559.312,-0.288038,-0.338852,10.2706,0.0885868,-1.06066,3.69556,-4.03271,-0.442139
240,559.82,-0.290477,-0.335304,10.2634,0.139508,-1.14662,7.10645,-4.03345,-0.437988
241,560.329,-0.293088,-0.36089,10.2694,0.0958869,-1.02618,1.49121,-4.03174,-0.443848
242,560.837,-0.28783,-0.36948,10.3097,-0.00548145,-1.13786,-4.43677,-4.03174,-0.440186
243,561.346,-0.291342,-0.385874,10.3486,0.183616,-1.07221,0.861328,-4.03174,-0.444336
244,561.855,-0.278982,-0.387169,10.3391,0.341502,-0.988581,0.869873,-4.03809,-0.439209
245,562.363,-0.266472,-0.360854,10.3146,0.375441,-1.09347,0.0100098,-4.03076,-0.443848
246,562.872,-0.27223,-0.331484,10.2909,0.257794,-1.14982,-5.34155,-4.03003,-0.442871
247,563.38,-0.293188,-0.333981,10.2699,0.222011,-1.00754,-3.33398,-4.03247,-0.442627
248,563.889,-0.323051,-0.327507,10.2692,0.188406,-1.07546,4.67969,-4.03125,-0.443359
249,564.398,-0.308509,-0.357778,10.2893,0.271857,-1.09214,-5.81323,-4.03052,-0.440674
250,564.906,-0.253883,-0.373586,10.3149,0.325109,-1.16632,2.90942,-4.03296,-0.443359
251,565.415,-0.258818,-0.35888,10.2968,0.233435,-1.04155,-3.17236,-4.03564,-0.440674
252,565.924,-0.274276,-0.340854,10.2991,0.24947,-1.16161,2.57861,-4.0293,-0.444824
253,566.432,-0.29655,-0.325254,10.2615,0.168196,-1.09703,-5.74634,-4.03345,-0.445312
254,566.941,-0.278775,-0.348136,10.2758,0.116942,-1.03056,6.0603,-4.03589,-0.442627
255,567.449,-0.261064,-0.357749,10.3486,0.262328,-1.11655,-1.65308,-4.03442,-0.441895
256,567.958,-0.254806,-0.359294,10.3229,0.223907,-1.1302,-2.12207,-4.03662,-0.44165
257,568.467,-0.284569,-0.347721,10.2801,0.265991,-1.14606,-0.184326,-4.03394,-0.439941
258,568.975,-0.290341,-0.325526,10.2949,0.173037,-1.06898,-2.91089,-4.03491,-0.441895
259,569.484,-0.293746,-0.325397,10.3061,0.18651,-1.06079,-3.96484,-4.03149,-0.440674
260,569.992,-0.28753,-0.343258,10.3117,0.222472,-1.17303,-3.48926,-4.03467,-0.439941
261,570.501,-0.262874,-0.349695,10.2816,0.285022,-1.04409,6.73853,-4.03271,-0.440674
262,571.01,-0.26105,-0.352943,10.2835,0.346036,-1.11204,3.26221,-4.03052,-0.448242
263,571.518,-0.283803,-0.354996,10.3102,0.340733,-1.07062,-2.85669,-4.03613,-0.442383
264,572.027,-0.288353,-0.340132,10.3067,0.389554,-1.0698,-4.69434,-4.03491,-0.439941
265,572.535,-0.292344,-0.345389,10.2979,0.306103,-1.04214,-5.90503,-4.03223,-0.442383
266,573.044,-0.276386,-0.361118,10.2756,0.305719,-1.11722,-1.59766,-4.03662,-0.440674
267,573.553,-0.275885,-0.331448,10.2735,0.299699,-1.05907,6.56519,-4.02905,-0.442871
268,574.061,-0.289054,-0.342335,10.3037,0.254362,-1.0726,0.810059,-4.03247,-0.440186
269,574.57,-0.30195,-0.34624,10.3025,0.331333,-0.999006,-1.07959,-4.03174,-0.443359
270,575.078,-0.244556,-0.332693,10.2909,0.16753,-1.00054,-3.59644,-4.03223,-0.441406
271,575.587,-0.262731,-0.335017,10.2992,0.318347,-1.04334,-1.75781,-4.03442,-0.439209
272,576.096,-0.265778,-0.329438,10.281,0.176239,-1.00026,-7.58154,-4.03369,-0.444824
273,576.604,-0.271315,-0.329438,10.2869,0.278465,-1.13445,-0.816162,-4.03247,-0.441162
274,577.113,-0.2813,-0.344073,10.2986,0.17068,-1.09242,3.57788,-4.03125,-0.443848
275,577.621,-0.278339,-0.343937,10.2858,0.278798,-1.09649,6.58472,-4.0354,-0.444336
276,578.13,-0.289797,-0.351148,10.314,0.219373,-1.12418,6.00366,-4.03271,-0.439941
277,578.639,-0.292272,-0.349295,10.3032,0.230874,-1.04232,-4.45044,-4.02979,-0.442871
278,579.147,-0.291264,-0.363951,10.276,0.264403,-1.08594,-5.97168,-4.02954,-0.441162
279,579.656,-0.285534,-0.368493,10.3217,0.260279,-1.03971,-4.43555,-4.03271,-0.443848
280,580.164,-0.284154,-0.33348,10.3067,0.269346,-1.10029,4.90112,-4.03149,-0.439697
281,580.673,-0.281493,-0.325862,10.2938,0.231181,-1.05011,7.15869,-4.0332,-0.437988
282,581.182,-0.303474,-0.326477,10.2986,0.209665,-1.03907,-1.23462,-4.03345,-0.440918
283,581.69,-0.277351,-0.339839,10.3014,0.244526,-1.02052,-1.61597,-4.03125,-0.441162
284,582.199,-0.267287,-0.383285,10.2869,0.289428,-1.13317,-2.87793,-4.02881,-0.445312
285,582.708,-0.279311,-0.348136,10.3385,0.301211,-1.04181,-4.06299,-4.03687,-0.441162
286,583.216,-0.279647,-0.342686,10.3001,0.129493,-1.05059,-4.85425,-4.0332,-0.444336
287,583.725,-0.287888,-0.357492,10.3118,0.172883,-1.02521,-3.80664,-4.03223,-0.439941
288,584.233,-0.300276,-0.339624,10.3031,0.236407,-1.02728,4.73169,-4.03101,-0.445312
289,584.742,-0.272809,-0.352971,10.2948,0.165148,-1.0582,-6.27319,-4.03149,-0.442871
290,585.251,-0.255106,-0.368414,10.3108,0.26617,-1.03026,5.77808,-4.02905,-0.439209
291,585.759,-0.269433,-0.361605,10.2895,0.35185,-1.02836,1.47729,-4.02954,-0.441406
292,586.268,-0.288767,-0.356641,10.2776,0.263455,-1.02816,-7.84497,-4.03296,-0.438232
293,586.776,-0.298896,-0.329196,10.2871,0.28282,-1.05259,-5.96997,-4.03101,-0.442383
294,587.285,-0.293073,-0.345168,10.2835,0.295985,-1.07124,-7.15552,-4.03857,-0.438477
295,587.794,-0.269426,-0.347521,10.2807,0.249624,-1.08635,-6.49658,-4.02954,-0.44165
296,588.302,-0.273117,-0.348837,10.3214,0.262994,-0.994473,5.82959,-4.02808,-0.445312
297,588.811,-0.273346,-0.35594,10.3161,0.266785,-1.20705,-6.69238,-4.03149,-0.436279
298,589.319,-0.270063,-0.35192,10.3106,0.255233,-1.0333,2.2793,-4.03247,-0.442871
299,589.828,-0.292659,-0.338308,10.2767,0.247702,-1.07124,-4.3313,-4.03223,-0.44165
300,590.337,-0.276307,-0.339174,10.2761,0.329156,-1.13187,-5.74878,-4.03149,-0.441406
301,590.845,-0.28419,-0.353665,10.2915,0.327747,-0.989196,-6.53491,-4.03174,-0.443848
302,591.354,-0.285899,-0.355103,10.2991,0.345165,-1.02521,1.4248,-4.02954,-0.44165
303,591.862,-0.28881,-0.349466,10.2864,0.258563,-1.11038,7.41992,-4.03247,-0.442383
304,592.371,-0.296442,-0.332922,10.2977,0.272958,-1.03879,-6.86719,-4.0271,-0.440674
305,592.88,-0.279068,-0.355675,10.2992,0.246191,-1.02349,-6.42578,-4.03516,-0.442383
306,593.388,-0.273131,-0.353543,10.277,0.403642,-1.16012,6.87988,-4.0293,-0.443359
307,593.897,-0.276085,-0.33863,10.2679,0.326056,-1.02677,-7.16162,-4.03369,-0.437256
308,594.405,-0.282208,-0.361869,10.3145,0.274777,-1.13814,2.79028,-4.03076,-0.443848
309,594.914,-0.290527,-0.3529,10.3039,0.265504,-1.06934,5.63525,-4.03149,-0.441162
310,595.423,-0.285606,-0.351026,10.2598,0.213123,-1.15128,-4.9231,-4.0293,-0.442383
311,595.931,-0.27821,-0.360775,10.3276,0.347957,-1.1082,6.00659,-4.03467,-0.438477
312,596.44,-0.279297,-0.344374,10.2854,0.19737,-1.04268,-4.85156,-4.03516,-0.44043
313,596.948,-0.274777,-0.338193,10.3127,0.290068,-1.05723,-6.53442,-4.03223,-0.442383
314,597.457,-0.265821,-0.35187,10.3365,0.2007,-1.0393,-1.86157,-4.0354,-0.442627
315,597.966,-0.275957,-0.323094,10.311,0.187227,-1.00546,7.05225,-4.03223,-0.443848
316,598.474,-0.281429,-0.350883,10.2916,0.397904,-1.08709,-7.05225,-4.0376,-0.441162
317,598.983,-0.294354,-0.347285,10.296,0.247165,-1.06122,4.80078,-4.0354,-0.438477
318,599.492,-0.288038,-0.363179,10.3016,0.222677,-1.04363,2.12769,-4.03662,-0.442383
319,600,-0.292301,-0.344717,10.3109,0.273598,-1.03087,4.43652,-4.0376,-0.443115
320,600.509,-0.301321,-0.350325,10.3134,0.176777,-1.07972,7.82666,-4.03101,-0.439453
321,601.017,-0.288732,-0.360718,10.302,0.263839,-1.05584,-5.7417,-4.03638,-0.438721
322,601.526,-0.285305,-0.340311,10.2834,0.233282,-0.991578,-2.61328,-4.03052,-0.442383
323,602.035,-0.272738,-0.346877,10.2775,0.333356,-1.07503,-3.87549,-4.02808,-0.441895
324,602.543,-0.27326,-0.342907,10.2739,0.305386,-1.07987,-5.27539,-4.03223,-0.44165
325,603.052,-0.286235,-0.355739,10.2987,0.315247,-1.06312,2.22754,-4.0332,-0.444336
326,603.56,-0.292358,-0.355768,10.29,0.244885,-1.04247,4.72925,-4.02905,-0.437744
327,604.069,-0.292709,-0.368543,10.2757,0.244168,-0.990707,-1.91235,-4.03613,-0.443848
328,604.578,-0.271951,-0.359688,10.3003,0.246063,-1.00751,-7.89893,-4.03174,-0.437256
329,605.086,-0.289189,-0.351104,10.2994,0.277594,-0.884997,-7.68408,-4.03564,-0.444336
330,605.595,-0.264541,-0.349717,10.2891,0.351363,-1.09237,-4.45068,-4.02954,-0.444824
331,606.103,-0.287737,-0.344717,10.3087,0.359022,-1.05892,1.12451,-4.03198,-0.44165
332,606.612,-0.283467,-0.355031,10.3142,0.234511,-1.24301,6.56445,-4.02856,-0.445312
333,607.121,-0.274826,-0.361941,10.2957,0.39834,-1.0625,3.48999,-4.03564,-0.439697
334,607.629,-0.279741,-0.335604,10.3343,0.319192,-1.06291,4.85303,-4.03467,-0.444336
335,608.138,-0.269026,-0.353658,10.2809,0.38,-1.10103,3.38086,-4.03271,-0.443604
336,608.646,-0.286564,-0.357577,10.2949,0.220193,-1.07044,-6.37598,-4.03296,-0.44043
337,609.155,-0.285026,-0.362878,10.2877,0.267195,-1.1957,1.33447,-4.03198,-0.438965
338,609.664,-0.28856,-0.360911,10.2917,0.264505,-1.14321,0.705078,-4.03247,-0.438232
339,610.172,-0.283574,-0.343809,10.2987,0.387761,-1.16322,1.85864,-4.03198,-0.445801
340,610.681,-0.266908,-0.351741,10.2944,0.261688,-1.11261,3.15625,-4.02954,-0.441162
341,611.189,-0.270342,-0.373421,10.3153,0.309279,-1.13169,-2.38184,-4.03833,-0.441895
342,611.698,-0.276436,-0.353507,10.2898,0.275187,-1.06271,0.598877,-4.03149,-0.439453
343,612.207,-0.2967,-0.370088,10.3444,0.248061,-1.15154,7.53003,-4.03589,-0.437256
344,612.715,-0.27954,-0.351097,10.3067,0.362301,-1.02869,-1.51611,-4.0271,-0.441895
345,613.224,-0.290255,-0.345954,10.2872,0.31599,-1.20743,-6.7417,-4.03418,-0.439209
346,613.732,-0.279555,-0.355861,10.3053,0.133565,-1.08458,7.51099,-4.03027,-0.443848
347,614.241,-0.286457,-0.343036,10.3276,0.210997,-1.12672,4.73218,-4.03125,-0.442383
348,614.75,-0.290398,-0.341241,10.3261,0.319602,-1.13051,6.42212,-4.03174,-0.442383
349,615.258,-0.274669,-0.339824,10.3474,0.231566,-0.99227,-0.359619,-4.02881,-0.443359
350,615.767,-0.257774,-0.363085,10.3048,0.192248,-1.10674,-6.0271,-4.02734,-0.438232
351,616.276,-0.27625,-0.347614,10.2856,0.311841,-1.09178,0.428223,-4.0293,-0.445312
352,616.784,-0.288167,-0.345797,10.3065,0.267323,-1.01624,-5.21411,-4.03882,-0.439697
353,617.293,-0.295148,-0.353158,10.3108,0.213482,-1.01504,0.284912,-4.03198,-0.441406
354,617.801,-0.288331,-0.359688,10.3327,0.224778,-1.01934,-1.28467,-4.03516,-0.441406
355,618.31,-0.286815,-0.350525,10.307,0.272369,-1.05321,-1.03955,-4.03052,-0.439697
356,618.819,-0.2812,-0.341012,10.2883,0.242861,-1.14191,-6.89746,-4.0354,-0.441895
357,619.327,-0.279769,-0.349645,10.3069,0.169016,-1.07654,2.38794,-4.0354,-0.44165
358,619.836,-0.280155,-0.354745,10.331,0.197934,-1.08917,-4.2771,-4.03345,-0.447266
359,620.344,-0.273875,-0.338143,10.2975,0.260689,-1.08743,-6.7937,-4.03442,-0.442139
360,620.853,-0.28625,-0.363972,10.3171,0.198216,-1.12833,-4.79907,-4.0354,-0.443359
361,621.362,-0.281071,-0.360274,10.2839,0.239275,-1.01783,-4.76318,-4.03125,-0.444336
362,621.87,-0.286772,-0.351054,10.2934,0.260023,-1.13676,6.84521,-4.03369,-0.439697
363,622.379,-0.288038,-0.336291,10.286,0.361942,-1.02167,2.84033,-4.02881,-0.440918
364,622.887,-0.291185,-0.358129,10.2794,0.243169,-1.07042,0.53418,-4.03027,-0.441162
365,623.396,-0.278811,-0.333187,10.2968,0.272497,-1.10233,-6.54736,-4.03101,-0.44043
366,623.905,-0.276457,-0.354903,10.288,0.234486,-1.0456,1.38867,-4.0332,-0.440918
367,624.413,-0.290034,-0.344388,10.2887,0.252851,-1.1049,-2.14282,-4.0293,-0.440186
368,624.922,-0.276643,-0.363286,10.3141,0.301236,-1.12572,-7.05591,-4.03467,-0.441895
369,625.43,-0.276092,-0.342793,10.3121,0.231335,-1.13612,-3.6499,-4.03198,-0.438232
370,625.939,-0.293145,-0.351026,10.2969,0.237303,-1.18358,-2.49609,-4.03149,-0.443359
371,626.448,-0.27894,-0.340854,10.2979,0.315401,-1.02846,7.63379,-4.0354,-0.442871
372,626.956,-0.305348,-0.358358,10.3054,0.243322,-1.07247,-3.927,-4.02881,-0.44165
373,627.465,-0.293674,-0.354001,10.2919,0.254746,-1.04739,1.47705,-4.0293,-0.442383
374,627.973,-0.298367,-0.346369,10.3161,0.182181,-1.09452,-2.80713,-4.03442,-0.437744
375,628.482,-0.271279,-0.357793,10.3002,0.187202,-1.10963,5.09863,-4.03076,-0.446289
376,628.991,-0.248812,-0.351097,10.2842,0.187586,-1.09921,-7.99902,-4.03516,-0.438721
377,629.499,-0.286092,-0.353114,10.2756,0.315683,-1.1101,5.77686,-4.02783,-0.443848
378,630.008,-0.2862,-0.352385,10.3069,0.286406,-1.09606,-3.58667,-4.03955,-0.438477
379,630.516,-0.268882,-0.363916,10.3118,0.22862,-1.07539,4.16821,-4.03296,-0.442139
380,631.025,-0.296156,-0.34883,10.3023,0.295908,-1.1082,6.88281,-4.03125,-0.443359
381,631.534,-0.274304,-0.355132,10.2646,0.234434,-1.02339,-6.0769,-4.02954,-0.44165
382,632.042,-0.274133,-0.367406,10.2906,0.230925,-1.10203,-0.567383,-4.03052,-0.445312
383,632.551,-0.265463,-0.330061,10.2878,0.247011,-1.02772,7.45898,-4.03052,-0.443359
384,633.06,-0.254026,-0.340168,10.2893,0.183846,-1.10118,-7.84375,-4.03394,-0.443359
385,633.568,-0.288546,-0.363743,10.3066,0.20713,-1.08638,-6.86304,-4.03003,-0.445312
386,634.077,-0.264648,-0.355146,10.2868,0.358868,-1.06045,-7.89893,-4.03174,-0.439697
387,634.585,-0.277723,-0.340254,10.3297,0.258819,-0.972829,2.80493,-4.03345,-0.444336
388,635.094,-0.29057,-0.350325,10.2959,0.31097,-1.10648,-0.778076,-4.03003,-0.440186
389,635.603,-0.265807,-0.346899,10.2854,0.108592,-1.00912,-7.91406,-4.02881,-0.438965
390,636.111,-0.268976,-0.358021,10.2877,0.317604,-1.04265,-1.19946,-4.02856,-0.44043
391,636.62,-0.283067,-0.345332,10.3124,0.204517,-0.985969,-3.64868,-4.03247,-0.441162
392,637.128,-0.268153,-0.342714,10.2932,0.276928,-1.03674,-0.7771,-4.03076,-0.443848
393,637.637,-0.277802,-0.333752,10.2975,0.190198,-1.07552,-7.02075,-4.02979,-0.442627
394,638.146,-0.282931,-0.346784,10.2945,0.221755,-1.09396,5.93872,-4.03125,-0.443359
395,638.654,-0.291092,-0.354245,10.3063,0.261765,-1.18105,2.0708,-4.03394,-0.438477
396,639.163,-0.277809,-0.366125,10.3022,0.22821,-0.986379,3.49146,-4.03711,-0.442383
397,639.671,-0.270585,-0.341699,10.2979,0.249854,-1.12946,-3.08545,-4.03052,-0.442871
398,640.18,-0.269998,-0.345003,10.3054,0.389144,-0.943244,-5.49805,-4.03076,-0.438721
399,640.689,-0.281099,-0.350711,10.3045,0.336866,-1.07774,3.36719,-4.03027,-0.444336
400,641.197,-0.272316,-0.335017,10.3149,0.268681,-1.12216,-3.23047,-4.03149,-0.44165
401,641.706,-0.295005,-0.341799,10.3001,0.327978,-1.09926,-1.72095,-4.03076,-0.441162
402,642.214,-0.285763,-0.335676,10.2794,0.291144,-0.965426,2.48975,-4.03296,-0.441895
403,642.723,-0.285663,-0.3427,10.2796,0.316912,-1.0966,7.5105,-4.02954,-0.442627
404,643.232,-0.289905,-0.351212,10.3224,0.268988,-1.09893,-1.96851,-4.03345,-0.443848
405,643.74,-0.282316,-0.354531,10.2965,0.264659,-1.07744,-3.32983,-4.03589,-0.437256
406,644.249,-0.30268,-0.362914,10.2889,0.171039,-1.06289,-4.60645,-4.03076,-0.443359
407,644.757,-0.28105,-0.350396,10.2967,0.313967,-1.10902,-2.33545,-4.03418,-0.439209
408,645.266,-0.2709,-0.345904,10.2888,0.272369,-0.948418,1.37354,-4.03027,-0.443115
409,645.775,-0.284697,-0.341012,10.2842,0.169861,-0.997572,5.4646,-4.02979,-0.442383
410,646.283,-0.2715,-0.336241,10.2981,0.351952,-0.966912,-2.86133,-4.0332,-0.436768
411,646.792,-0.291643,-0.333272,10.3069,0.266683,-1.16783,-7.73828,-4.03442,-0.444336
412,647.3,-0.289039,-0.349015,10.3328,0.174523,-1.1186,0.587402,-4.03076,-0.443115
413,647.809,-0.278331,-0.341248,10.3083,0.347598,-1.08551,-7.49146,-4.03101,-0.44043
414,648.318,-0.272445,-0.349688,10.3083,0.288378,-1.1167,-4.33179,-4.03174,-0.440674
415,648.826,-0.28223,-0.359008,10.3203,0.263148,-1.11594,-3.50439,-4.03101,-0.438721
416,649.335,-0.2863,-0.344989,10.2727,0.198959,-1.13246,4.32446,-4.03223,-0.443848
417,649.844,-0.29185,-0.353679,10.3212,0.272676,-1.07938,6.68481,-4.03198,-0.439697
418,650.352,-0.275971,-0.338051,10.2998,0.21904,-1.1028,-3.03369,-4.03003,-0.445312
419,650.861,-0.281135,-0.351104,10.2951,0.230003,-1.11709,1.79346,-4.03052,-0.438477
420,651.369,-0.291164,-0.344252,10.2903,0.335406,-1.09224,-7.95068,-4.03198,-0.441406
421,651.878,-0.259999,-0.333036,10.2735,0.154876,-1.04406,-3.03369,-4.03003,-0.443848
422,652.387,-0.283775,-0.346591,10.3214,0.223471,-1.17764,2.17432,-4.03247,-0.442139
423,652.895,-0.275363,-0.342328,10.3136,0.340631,-1.06268,7.93188,-4.03125,-0.445312
424,653.404,-0.271908,-0.345468,10.3099,0.311584,-1.11184,-3.1687,-4.03857,-0.44165
425,653.912,-0.277387,-0.349166,10.3087,0.305411,-1.12347,-6.8645,-4.02881,-0.441895
426,654.421,-0.28743,-0.3478,10.2985,0.208538,-1.04178,6.37256,-4.03394,-0.44043
427,654.93,-0.28263,-0.339996,10.2982,0.250546,-1.03479,-0.621338,-4.0293,-0.441162
428,655.438,-0.303052,-0.346241,10.32,0.238737,-1.04194,0.240479,-4.03809,-0.444824
429,655.947,-0.2709,-0.333358,10.294,0.2382,-1.04247,-2.96484,-4.03418,-0.438721
430,656.455,-0.276729,-0.340583,10.313,0.246166,-1.03356,-1.04248,-4.02832,-0.445312
431,656.964,-0.283417,-0.344702,10.2953,0.319474,-0.97352,-2.2998,-4.02954,-0.442627
432,657.473,-0.277802,-0.355067,10.2916,0.263814,-1.01873,4.11719,-4.03418,-0.437012
433,657.981,-0.289061,-0.335468,10.283,0.285022,-1.07967,0.270752,-4.0293,-0.443359
434,658.49,-0.276937,-0.337857,10.299,0.252569,-1.1435,1.13013,-4.03638,-0.44165
435,658.998,-0.290634,-0.34054,10.2854,0.27201,-1.16114,1.44312,-4.03491,-0.442871
436,659.507,-0.29401,-0.3326,10.3243,0.316144,-1.11676,-7.54736,-4.02832,-0.439697
437,660.016,-0.274884,-0.355425,10.2887,0.207001,-1.05057,-6.12744,-4.03101,-0.438721
438,660.524,-0.28464,-0.34109,10.2966,0.252902,-1.13264,-2.54834,-4.03174,-0.44043
439,661.033,-0.28557,-0.348158,10.3043,0.272138,-1.15656,-6.27197,-4.03247,-0.439209
440,661.541,-0.292601,-0.352392,10.2794,0.29076,-1.11775,5.77637,-4.02759,-0.443848
441,662.05,-0.292072,-0.353808,10.2869,0.232103,-1.06291,4.73169,-4.03101,-0.441162
442,662.559,-0.267724,-0.347778,10.3275,0.305924,-1.0072,-4.16772,-4.03687,-0.441406
443,663.067,-0.256479,-0.347006,10.3085,0.286431,-0.930872,5.69312,-4.03564,-0.440918
444,663.576,-0.278374,-0.346927,10.2643,0.337506,-1.15331,-6.2334,-4.03027,-0.443848
445,664.084,-0.275864,-0.358522,10.316,0.131209,-1.1678,-2.44238,-4.03223,-0.441406
446,664.593,-0.271829,-0.342156,10.2843,0.24678,-1.13112,7.10522,-4.03247,-0.442627
447,665.102,-0.279111,-0.33162,10.2701,0.255207,-1.05846,-7.37134,-4.03418,-0.446777
448,665.61,-0.273897,-0.358186,10.2962,0.18318,-1.08889,-7.47852,-4.03271,-0.443115
449,666.119,-0.284182,-0.336999,10.2764,0.266196,-1.04247,1.58276,-4.02979,-0.441406
450,666.628,-0.269383,-0.356162,10.2631,0.3018,-1.13494,-0.0437012,-4.02979,-0.441406
451,667.136,-0.276829,-0.34521,10.2728,0.115405,-1.06153,7.52612,-4.03345,-0.444092
452,667.645,-0.290777,-0.332886,10.2976,0.219501,-1.0624,2.00073,-4.02856,-0.444824
453,668.153,-0.292566,-0.343959,10.2907,0.243963,-1.10718,1.47827,-4.03003,-0.436768
454,668.662,-0.272659,-0.349888,10.2823,0.204978,-1.13689,1.21313,-4.02808,-0.442871
455,669.171,-0.281185,-0.346062,10.3216,0.123345,-1.00718,7.99805,-4.0332,-0.438477
456,669.679,-0.273561,-0.32941,10.2933,0.312302,-0.986712,-1.45947,-4.03027,-0.444336
457,670.188,-0.282022,-0.35139,10.3129,0.266017,-1.12534,6.42627,-4.03467,-0.444336
458,670.696,-0.29994,-0.352628,10.2942,0.239865,-1.18658,-4.66187,-4.02856,-0.440674
459,671.205,-0.287051,-0.351941,10.2696,0.332511,-0.994191,-4.18701,-4.03052,-0.444336
460,671.714,-0.286986,-0.32956,10.2693,0.342629,-1.11545,-7.3877,-4.03003,-0.44165
461,672.222,-0.287222,-0.330741,10.2916,0.309817,-1.01934,0.588135,-4.03125,-0.439453
462,672.731,-0.268167,-0.353114,10.2835,0.365912,-1.15477,7.63379,-4.0354,-0.442383
463,673.239,-0.284511,-0.339996,10.3489,0.280822,-1.05948,-2.70386,-4.03296,-0.437256
464,673.748,-0.286929,-0.338494,10.3198,0.175265,-1.06614,5.95361,-4.03442,-0.442383
465,674.257,-0.269061,-0.355439,10.3245,0.188124,-1.15889,-3.59033,-4.03711,-0.439209
466,674.765,-0.264491,-0.338436,10.3277,0.172602,-1.04662,-1.33887,-4.03394,-0.442871
467,675.274,-0.287745,-0.338279,10.3149,0.32119,-1.06197,4.83545,-4.03003,-0.442139
468,675.782,-0.289225,-0.330883,10.304,0.157054,-1.02623,0.0107422,-4.03101,-0.444824
469,676.291,-0.277137,-0.337522,10.2906,0.295063,-1.11463,-0.394043,-4.03442,-0.444336
470,676.8,-0.294761,-0.34162,10.3234,0.182719,-1.08466,3.3147,-4.03027,-0.440186
471,677.308,-0.286364,-0.350361,10.3066,0.254567,-1.06166,1.44409,-4.0354,-0.446289
472,677.817,-0.278703,-0.345761,10.3171,0.269423,-1.22003,-1.14624,-4.02905,-0.440674
473,678.325,-0.277094,-0.345489,10.3136,0.263635,-1.11409,5.74316,-4.03394,-0.444336
474,678.834,-0.277609,-0.349095,10.3047,0.397162,-0.976824,1.49121,-4.03174,-0.44043
475,679.343,-0.287494,-0.362442,10.2875,0.332998,-1.02634,-7.26636,-4.03418,-0.440186
476,679.851,-0.265814,-0.347557,10.2986,0.232564,-1.07134,-5.18262,-4.03125,-0.441895
477,680.36,-0.288345,-0.339717,10.3022,0.230054,-1.01865,-4.43506,-4.03271,-0.442627
478,680.868,-0.298302,-0.355232,10.2814,0.229004,-1.07651,2.00366,-4.03076,-0.442383
479,681.377,-0.278761,-0.357106,10.2967,0.149933,-1.12861,-3.45239,-4.03052,-0.440918
480,681.886,-0.28145,-0.349946,10.2932,0.204363,-1.09519,-5.11914,-4.03198,-0.444092
481,682.394,-0.262109,-0.342607,10.3139,0.278721,-1.19262,3.64307,-4.03247,-0.442871
482,682.903,-0.266701,-0.342864,10.3015,0.27511,-1.06491,4.20752,-4.03125,-0.439697
483,683.411,-0.279647,-0.325276,10.295,0.172345,-1.14416,-0.251953,-4.03101,-0.442871
484,683.92,-0.272294,-0.350325,10.297,0.375825,-1.0529,-0.185547,-4.03296,-0.44165
485,684.429,-0.260371,-0.361884,10.3002,0.277364,-1.02457,-2.27881,-4.03735,-0.44043
486,684.937,-0.268053,-0.359939,10.3248,0.343244,-1.05152,-1.25049,-4.02979,-0.44043
487,685.446,-0.27919,-0.344359,10.2925,0.387377,-1.07774,3.47144,-4.03003,-0.437744
488,685.955,-0.287594,-0.336906,10.3115,0.181003,-1.11404,0.443848,-4.03271,-0.443848
489,686.463,-0.274934,-0.334037,10.3125,0.283383,-1.08784,-3.08521,-4.03076,-0.437256
490,686.972,-0.267481,-0.329832,10.2955,0.388376,-1.03195,0.818604,-4.03833,-0.443359
491,687.48,-0.260764,-0.339789,10.3046,0.270832,-1.04921,3.26099,-4.02954,-0.440918
492,687.989,-0.290828,-0.349273,10.2907,0.382869,-0.972239,6.79102,-4.03296,-0.441406
493,688.498,-0.290134,-0.341519,10.287,0.222216,-1.09562,-5.21655,-4.03687,-0.441895
494,689.006,-0.284633,-0.368106,10.3113,0.191274,-1.11942,2.31689,-4.02954,-0.438721
495,689.515,-0.286107,-0.360925,10.3004,0.237995,-1.05751,-3.12061,-4.0354,-0.444824
496,690.023,-0.285448,-0.359016,10.2895,0.270909,-1.0915,1.00757,-4.03101,-0.44165
497,690.532,-0.269319,-0.357263,10.3104,0.256386,-1.05759,-5.39282,-4.03101,-0.443848
498,691.041,-0.261658,-0.351161,10.2989,0.328336,-1.1383,1.2832,-4.0332,-0.438965
499,691.549,-0.271701,-0.330855,10.3306,0.304079,-1.12003,4.7312,-4.03052,-0.441162
500,692.058,-0.261837,-0.363229,10.3106,0.25157,-1.00474,-0.708984,-4.03394,-0.445312
501,692.566,-0.274269,-0.354831,10.3042,0.353054,-1.12705,1.18359,-4.03662,-0.439209
502,693.075,-0.282459,-0.349638,10.2994,0.211919,-1.051,3.84009,-4.03101,-0.442871
503,693.584,-0.278403,-0.330797,10.3007,0.237354,-1.07183,6.14648,-4.02979,-0.443604
504,694.092,-0.300176,-0.352263,10.3104,0.301262,-1.14117,1.8064,-4.03174,-0.443848
505,694.601,-0.291149,-0.346126,10.2914,0.218989,-1.11819,3.83936,-4.03076,-0.441895
506,695.109,-0.298324,-0.333394,10.3066,0.251801,-1.15963,-0.986572,-4.03101,-0.438721
507,695.618,-0.271257,-0.346169,10.2884,0.159359,-1.09818,1.1814,-4.03564,-0.443848
508,696.127,-0.280492,-0.357571,10.3025,0.164507,-1.08346,-5.95386,-4.03442,-0.440186
509,696.635,-0.279426,-0.350447,10.2785,0.298239,-1.12134,-2.38867,-4.03345,-0.442871
510,697.144,-0.278718,-0.333179,10.304,0.258332,-0.997418,1.7915,-4.02905,-0.440918
511,697.652,-0.277959,-0.347979,10.2806,0.288455,-1.01855,-4.33154,-4.03174,-0.438232
512,698.161,-0.291071,-0.344967,10.2836,0.234562,-0.994396,-3.18945,-4.03125,-0.442383
513,698.67,-0.269233,-0.344953,10.2839,0.0837201,-1.14711,1.91528,-4.03516,-0.44165
514,699.178,-0.290191,-0.331441,10.3112,0.156772,-1.0729,-7.01929,-4.03101,-0.440918
515,699.687,-0.289054,-0.353014,10.3301,0.289735,-1.02188,-2.50757,-4.03125,-0.441162
516,700.195,-0.272459,-0.34471,10.2957,0.23072,-1.12398,1.5979,-4.03271,-0.439697
517,700.704,-0.276465,-0.341155,10.2962,0.1225,-1.02321,3.00122,-4.03125,-0.441406
518,701.213,-0.281286,-0.334596,10.269,0.203492,-1.1675,-7.07593,-4.02759,-0.440186
519,701.721,-0.269476,-0.358393,10.3239,0.150215,-1.11051,-6.16577,-4.03345,-0.442871
520,702.23,-0.283016,-0.339725,10.2899,0.274034,-1.11927,-6.06348,-4.03149,-0.440674
521,702.739,-0.28316,-0.339138,10.3121,0.292527,-1.05426,-0.185059,-4.03345,-0.441895
522,703.247,-0.272194,-0.352907,10.3007,0.372956,-1.01105,-7.94287,-4.03833,-0.442871
523,703.756,-0.283367,-0.359302,10.2744,0.20298,-1.11261,-7.33521,-4.03003,-0.437256
524,704.264,-0.296142,-0.34521,10.2901,0.219219,-1.03451,-0.881592,-4.03101,-0.443848
525,704.773,-0.294483,-0.359452,10.2996,0.150343,-1.10141,6.98682,-4.03027,-0.436279
526,705.282,-0.295691,-0.343301,10.2793,0.261047,-1.10782,1.0752,-4.03467,-0.444336
527,705.79,-0.291843,-0.360625,10.3109,0.272318,-1.13015,-7.07495,-4.02856,-0.439941
528,706.299,-0.291722,-0.355132,10.2962,0.201085,-1.09747,-1.3938,-4.03174,-0.444336
529,706.807,-0.289626,-0.359981,10.3184,0.269014,-1.01343,-1.40796,-4.02954,-0.441895
530,707.316,-0.28964,-0.347013,10.311,0.228082,-1.04609,6.30371,-4.02979,-0.441162
531,707.825,-0.294125,-0.354402,10.3191,0.365656,-1.03425,-2.69702,-4.03833,-0.444824
532,708.333,-0.288646,-0.366604,10.3099,0.305821,-1.13543,2.86108,-4.03613,-0.439697
533,708.842,-0.272781,-0.361455,10.3069,0.222831,-1.06053,-0.291748,-4.03198,-0.437988
534,709.35,-0.29288,-0.342664,10.3065,0.259229,-1.11166,3.9043,-4.03174,-0.439209
535,709.859,-0.268646,-0.357234,10.2976,0.326543,-1.08581,4.85034,-4.0332,-0.439697
536,710.368,-0.282688,-0.347042,10.2951,0.264915,-1.10505,0.849854,-4.03101,-0.443359
537,710.876,-0.285091,-0.347471,10.268,0.320652,-1.02869,7.99756,-4.03271,-0.442139
538,711.385,-0.281522,-0.356562,10.3471,0.258998,-1.09434,-3.82104,-4.02954,-0.443359
539,711.893,-0.283017,-0.3586,10.3291,0.295755,-1.03387,-5.23779,-4.0293,-0.440918
540,712.402,-0.28273,-0.33506,10.292,0.195603,-1.07767,-0.394043,-4.03442,-0.438477
541,712.911,-0.289025,-0.360946,10.3043,0.192196,-1.02641,1.94922,-4.0293,-0.442383
542,713.419,-0.264133,-0.332829,10.322,0.255131,-1.02836,-4.18604,-4.03101,-0.440186
543,713.928,-0.278553,-0.354202,10.3092,0.264505,-1.10402,3.33496,-4.03735,-0.444336
544,714.436,-0.299268,-0.346755,10.2908,0.312763,-1.00118,2.96069,-4.03223,-0.440186
545,714.945,-0.284047,-0.348422,10.3191,0.211074,-1.10679,0.182129,-4.03345,-0.438477
546,715.454,-0.285756,-0.350983,10.2773,0.257846,-1.08236,-0.0830078,-4.03149,-0.443359
547,715.962,-0.296285,-0.345511,10.3113,0.303208,-1.12208,-7.96484,-4.02979,-0.439209
548,716.471,-0.289075,-0.330111,10.3032,0.112049,-1.15282,-7.83911,-4.03735,-0.444824
549,716.979,-0.278117,-0.333337,10.2786,0.196833,-1.11929,3.99756,-4.03125,-0.442139
550,717.488,-0.275499,-0.353,10.292,0.210895,-1.11186,1.75562,-4.03296,-0.442383
551,717.997,-0.284655,-0.331541,10.2925,0.329309,-1.07137,0.745117,-4.03101,-0.442871
552,718.505,-0.278954,-0.343744,10.2851,0.326671,-1.08712,-5.06128,-4.03564,-0.439941
553,719.014,-0.276364,-0.361333,10.3003,0.312839,-1.14716,3.2251,-4.03345,-0.445312
554,719.523,-0.306335,-0.372942,10.285,0.241555,-1.08133,-0.0300293,-4.03174,-0.442139
555,720.031,-0.282208,-0.354273,10.2845,0.32037,-1.05574,1.11035,-4.02979,-0.445312
556,720.54,-0.271293,-0.347449,10.2909,0.267553,-1.10361,-0.357422,-4.03076,-0.438721
557,721.048,-0.280957,-0.342492,10.2919,0.130287,-1.12149,-4.5376,-4.03467,-0.440918
558,721.557,-0.273389,-0.32873,10.3076,0.162996,-1.2218,6.87988,-4.02881,-0.44043
559,722.066,-0.27718,-0.342099,10.2938,0.293296,-0.982408,6.89404,-4.03149,-0.442139
560,722.574,-0.295734,-0.342957,10.3159,0.242913,-1.05313,2.52368,-4.02734,-0.441895
561,723.083,-0.28728,-0.356748,10.3175,0.177596,-1.05167,4.85645,-4.03809,-0.438721
562,723.591,-0.287087,-0.356927,10.3011,0.155209,-1.05116,4.93921,-4.0293,-0.441895
563,724.1,-0.265421,-0.345761,10.3084,0.357408,-1.19708,-1.72217,-4.03003,-0.443359
564,724.609,-0.299647,-0.355618,10.3082,0.340657,-1.08794,4.10034,-4.0293,-0.44043
565,725.117,-0.281207,-0.350339,10.2938,0.338479,-1.03633,-4.59399,-4.03198,-0.444336
566,725.626,-0.272645,-0.3475,10.2913,0.271293,-1.04621,-2.32935,-4.03857,-0.439697
567,726.134,-0.284934,-0.348143,10.3,0.156183,-1.07047,-2.87524,-4.03076,-0.442383
568,726.643,-0.266744,-0.357027,10.3319,0.352234,-1.09035,7.87891,-4.03052,-0.441162
569,727.152,-0.275234,-0.350117,10.3272,0.138739,-1.1416,1.63696,-4.03125,-0.439453
570,727.66,-0.270399,-0.342714,10.3066,0.206925,-1.03689,-3.91211,-4.03174,-0.441406
571,728.169,-0.282201,-0.341448,10.3225,0.197396,-1.09783,-6.63843,-4.0332,-0.442139
572,728.677,-0.290699,-0.336649,10.316,0.255822,-1.10346,-6.1123,-4.03418,-0.444336
573,729.186,-0.295727,-0.331513,10.3073,0.233307,-1.16527,2.07056,-4.03345,-0.440186
574,729.695,-0.284061,-0.337707,10.3085,0.391065,-1.08635,0.583252,-4.02783,-0.443848
575,730.203,-0.286414,-0.354402,10.2891,0.267425,-1.09506,-7.84619,-4.03247,-0.439453
576,730.712,-0.286192,-0.352585,10.2746,0.280309,-1.00001,7.68945,-4.0376,-0.443604
577,731.22,-0.277666,-0.338236,10.3031,0.234434,-1.00236,-6.26782,-4.0354,-0.438477
578,731.729,-0.28718,-0.342978,10.2785,0.231207,-1.05223,3.43335,-4.03247,-0.440186
579,732.238,-0.279011,-0.349016,10.3039,0.285176,-1.11345,0.42749,-4.02881,-0.440918
580,732.746,-0.279876,-0.340032,10.2837,0.192734,-1.1217,2.79028,-4.03052,-0.439209
581,733.255,-0.280835,-0.34692,10.3081,0.274905,-1.08207,-2.14087,-4.03076,-0.440674
582,733.763,-0.283167,-0.356305,10.2959,0.172525,-1.08827,3.26172,-4.03003,-0.439941
583,734.272,-0.275077,-0.36247,10.3194,0.291067,-0.997649,-2.03589,-4.03076,-0.442139
584,734.781,-0.278403,-0.346283,10.3012,0.204389,-1.10131,5.20435,-4.03125,-0.444824
585,735.289,-0.263818,-0.343022,10.3036,0.264685,-1.0395,-3.9646,-4.03198,-0.439697
586,735.798,-0.284612,-0.333086,10.3294,0.261611,-1.08392,4.77881,-4.0271,-0.446289
587,736.307,-0.275792,-0.358708,10.2835,0.242323,-1.08307,-5.0127,-4.03247,-0.443359
588,736.815,-0.268182,-0.363028,10.3034,0.229721,-1.06524,7.05518,-4.03418,-0.44458
589,737.324,-0.286192,-0.366197,10.3071,0.266683,-1.09329,7.68433,-4.03369,-0.446289
590,737.832,-0.298317,-0.34516,10.2969,0.207744,-1.07759,-6.05859,-4.03491,-0.437744
591,738.341,-0.292544,-0.350053,10.2967,0.232436,-1.05282,4.73096,-4.03052,-0.443359
592,738.85,-0.272917,-0.355368,10.3063,0.23031,-1.14398,-4.69482,-4.03491,-0.442627
593,739.358,-0.270978,-0.346019,10.2969,0.266785,-1.03891,0.445801,-4.03467,-0.4375
594,739.867,-0.284805,-0.331828,10.3219,0.229004,-1.07167,6.40747,-4.02881,-0.441895
595,740.375,-0.270513,-0.349166,10.3029,0.312737,-1.07142,3.64624,-4.03491,-0.443115
596,740.884,-0.283889,-0.346384,10.3024,0.303055,-1.15105,2.12207,-4.03271,-0.439941
597,741.393,-0.277237,-0.349767,10.2727,0.210946,-1.02142,-1.61816,-4.0293,-0.440186
598,741.901,-0.297072,-0.341913,10.2874,0.182898,-1.1415,2.17505,-4.03296,-0.443848
599,742.41,-0.296121,-0.334431,10.2855,0.291272,-1.08312,3.15747,-4.03052,-0.445801
600,742.918,-0.287015,-0.365939,10.3152,0.26074,-1.23463,5.83032,-4.02881,-0.444824
601,743.427,-0.290777,-0.353759,10.286,0.169912,-1.17359,0.325928,-4.03125,-0.444824
602,743.936,-0.283925,-0.330747,10.3016,0.245628,-1.0843,-1.18042,-4.03467,-0.442139
603,744.444,-0.265671,-0.341298,10.3298,0.208128,-1.13737,1.4917,-4.03174,-0.443359
604,744.953,-0.287923,-0.369008,10.3236,0.277748,-1.07772,-6.2146,-4.03613,-0.442627
605,745.461,-0.292358,-0.334488,10.3105,0.22278,-1.05413,-0.0788574,-4.03442,-0.439941
606,745.97,-0.286757,-0.348387,10.3197,0.166198,-1.07014,-5.2229,-4.03247,-0.442871
607,746.479,-0.288746,-0.350361,10.3184,0.207949,-1.103,-1.86646,-4.03149,-0.440674
608,746.987,-0.274426,-0.353108,10.2934,0.238046,-1.082,5.78125,-4.03125,-0.445801
609,747.496,-0.281429,-0.361319,10.2724,0.149088,-1.04278,-0.518066,-4.02808,-0.437256
610,748.004,-0.289132,-0.356033,10.2953,0.151803,-1.14916,7.40405,-4.02881,-0.440918
611,748.513,-0.265485,-0.354273,10.2748,0.258691,-1.12654,1.33691,-4.03394,-0.440918
612,749.022,-0.287888,-0.342707,10.3026,0.236458,-1.07085,5.09814,-4.03052,-0.438232
613,749.53,-0.284047,-0.356733,10.3121,0.361814,-1.08707,4.41479,-4.0293,-0.4375
614,750.039,-0.281622,-0.343644,10.2933,0.15836,-1.09834,-4.48682,-4.03345,-0.436768
615,750.547,-0.29557,-0.349588,10.3355,0.231565,-1.07275,-7.96411,-4.03052,-0.442383
616,751.056,-0.294204,-0.344831,10.2803,0.278183,-1.0414,-3.5061,-4.02979,-0.440186
617,751.565,-0.291686,-0.347235,10.3245,0.344089,-1.08366,-6.53394,-4.03223,-0.443359
618,752.073,-0.286564,-0.350225,10.3188,0.230234,-1.09934,-3.76807,-4.03003,-0.441406
619,752.582,-0.282323,-0.357392,10.3004,0.236868,-1.06955,7.77271,-4.02979,-0.438232
620,753.091,-0.27723,-0.358686,10.2965,0.26115,-1.08725,0.496338,-4.03296,-0.440918
621,753.599,-0.270077,-0.330132,10.3026,0.0755492,-1.15513,1.53223,-4.03125,-0.440186
622,754.108,-0.284032,-0.364309,10.318,0.316733,-1.00213,0.813721,-4.0354,-0.443359
623,754.616,-0.286686,-0.333623,10.2845,0.322598,-1.10759,-6.63867,-4.03271,-0.438965
624,755.125,-0.282165,-0.34584,10.2828,0.206643,-1.1738,-0.292236,-4.03198,-0.439453
625,755.634,-0.288989,-0.353386,10.3005,0.211125,-1.16914,-2.14111,-4.03052,-0.442383
626,756.142,-0.298045,-0.330468,10.2863,0.296933,-1.16089,-7.7041,-4.02881,-0.442627
627,756.651,-0.28836,-0.356241,10.3231,0.306333,-1.04596,4.21948,-4.03223,-0.442871
628,757.159,-0.293617,-0.336849,10.2902,0.272548,-0.949264,-2.35034,-4.03101,-0.441162
629,757.668,-0.292523,-0.334374,10.3068,0.252595,-1.09281,4.63916,-4.03223,-0.442383
630,758.177,-0.277959,-0.338794,10.2836,0.304028,-1.17961,-0.514648,-4.03076,-0.439941
631,758.685,-0.275878,-0.351048,10.2932,0.341194,-1.07252,6.77808,-4.03125,-0.442139
632,759.194,-0.268067,-0.349875,10.3,0.222396,-1.11978,-5.0603,-4.03613,-0.442383
633,759.702,-0.274304,-0.348572,10.2953,0.202007,-1.08095,5.83228,-4.03027,-0.438232
634,760.211,-0.294447,-0.355575,10.3106,0.249777,-1.02639,6.00903,-4.03662,-0.443359
635,760.72,-0.277151,-0.337435,10.2994,0.21904,-1.0239,2.2666,-4.03125,-0.441406
636,761.228,-0.289053,-0.347543,10.3029,0.231514,-1.11491,-4.66211,-4.02832,-0.441895
637,761.737,-0.287365,-0.354738,10.2958,0.264172,-1.06115,-0.449463,-4.03223,-0.441895
638,762.245,-0.29808,-0.361068,10.2955,0.247011,-1.17521,4.74487,-4.03271,-0.440186
639,762.754,-0.273832,-0.334918,10.2852,0.219091,-1.1208,-1.65601,-4.03198,-0.443848
640,763.263,-0.282637,-0.337049,10.3066,0.294551,-1.07078,-2.75439,-4.03467,-0.437744
641,763.771,-0.295684,-0.336519,10.2897,0.295908,-1.08407,6.89648,-4.03345,-0.439453
642,764.28,-0.285034,-0.353672,10.2894,0.333741,-1.05684,-2.61328,-4.03027,-0.439209
643,764.788,-0.274276,-0.344516,10.3141,0.14417,-0.98538,3.89087,-4.02979,-0.441162
644,765.297,-0.288596,-0.318696,10.291,0.251288,-1.01558,2.69946,-4.03296,-0.443359
645,765.806,-0.288367,-0.334897,10.2991,0.326543,-1.07065,2.26392,-4.0293,-0.437256
646,766.314,-0.272831,-0.351648,10.2927,0.306871,-1.09496,-6.32202,-4.03418,-0.44043
647,766.823,-0.280656,-0.33348,10.3061,0.235997,-1.08387,4.58691,-4.03247,-0.44043
648,767.331,-0.293431,-0.360353,10.3029,0.253491,-1.0549,6.47705,-4.03345,-0.440918
649,767.84,-0.269848,-0.356047,10.3043,0.260381,-1.07941,-6.06226,-4.03247,-0.446289
650,768.349,-0.282716,-0.359294,10.2857,0.207309,-1.13576,-3.69873,-4.03467,-0.441162
651,768.857,-0.27801,-0.345776,10.2905,0.302901,-1.06453,-5.70752,-4.03125,-0.444336
652,769.366,-0.293431,-0.347113,10.285,0.281565,-1.13755,0.653076,-4.03271,-0.44165
653,769.875,-0.263804,-0.364222,10.2883,0.23049,-1.03817,-3.43896,-4.03247,-0.442871
654,770.383,-0.288803,-0.351677,10.2925,0.212329,-1.04365,3.54004,-4.03394,-0.444336
655,770.892,-0.272638,-0.331634,10.2905,0.35915,-1.03059,-5.9585,-4.03149,-0.439697
656,771.4,-0.273611,-0.340533,10.2929,0.244347,-1.10011,-4.22705,-4.03174,-0.444336
657,771.909,-0.283574,-0.359853,10.2874,0.346035,-1.05031,3.41724,-4.02881,-0.437744
658,772.418,-0.270299,-0.350633,10.3008,0.312686,-1.17728,0.442871,-4.03223,-0.442871
659,772.926,-0.276608,-0.361676,10.3186,0.302645,-1.01402,-7.47192,-4.0376,-0.440186
660,773.435,-0.287544,-0.349645,10.3159,0.128878,-1.0614,-2.3916,-4.03149,-0.442383
661,773.943,-0.289254,-0.348608,10.2849,0.293962,-1.07149,-5.59033,-4.03174,-0.444336
662,774.452,-0.258375,-0.337865,10.2909,0.233691,-1.03018,1.47949,-4.03101,-0.442139
663,774.961,-0.27615,-0.35207,10.3044,0.262405,-1.03441,-3.2439,-4.02954,-0.443359
664,775.469,-0.290928,-0.351777,10.2896,0.174779,-1.00349,5.93848,-4.03101,-0.44165
665,775.978,-0.293331,-0.35727,10.2994,0.288019,-1.07249,-5.74219,-4.03638,-0.442383
666,776.486,-0.277845,-0.353451,10.3109,0.343269,-1.01963,7.05322,-4.03271,-0.439453
667,776.995,-0.262753,-0.344717,10.289,0.302901,-1.15367,4.10156,-4.03052,-0.439209
668,777.504,-0.280792,-0.330032,10.2723,0.153109,-1.13907,2.12183,-4.03223,-0.444336
669,778.012,-0.281493,-0.353508,10.2972,0.295319,-1.05697,4.99365,-4.03076,-0.438721
670,778.521,-0.271171,-0.352349,10.2927,0.258717,-1.09503,-1.66943,-4.03052,-0.442871
671,779.029,-0.270463,-0.357907,10.2783,0.194527,-1.11284,2.79053,-4.03076,-0.44043
672,779.538,-0.2816,-0.369823,10.2856,0.224522,-1.13248,3.53687,-4.03149,-0.438721
673,780.047,-0.25472,-0.359995,10.2698,0.243041,-1.11816,-5.95703,-4.03296,-0.441406
674,780.555,-0.285148,-0.347707,10.2913,0.265402,-1.06276,-6.58521,-4.03345,-0.439697
675,781.064,-0.271365,-0.35717,10.2922,0.2601,-1.13251,-1.67334,-4.02734,-0.441406
676,781.572,-0.282108,-0.341484,10.2931,0.15316,-1.14414,6.05542,-4.03198,-0.437256
677,782.081,-0.294347,-0.337292,10.2872,0.176751,-1.13169,-2.06616,-4.03931,-0.438965
678,782.59,-0.279705,-0.330139,10.293,0.214763,-1.08143,-5.69214,-4.03467,-0.438965
679,783.098,-0.252996,-0.339531,10.3276,0.320216,-1.03366,-1.12915,-4.03394,-0.439209
680,783.607,-0.274605,-0.341992,10.2988,0.267656,-1.12075,3.1582,-4.03101,-0.438965
681,784.115,-0.284175,-0.336856,10.3184,0.240274,-1.08822,-3.29639,-4.02954,-0.438721
682,784.624,-0.277123,-0.340468,10.2793,0.297215,-1.07311,2.802,-4.03149,-0.444336
683,785.133,-0.301685,-0.344338,10.2897,0.259357,-1.15077,1.53174,-4.03101,-0.439697
684,785.641,-0.293038,-0.352063,10.3113,0.231207,-1.08609,-4.9082,-4.03247,-0.440918
685,786.15,-0.290005,-0.364845,10.2951,0.171961,-1.17813,1.21729,-4.03101,-0.441406
686,786.659,-0.268947,-0.345976,10.3017,0.157182,-1.14357,1.18018,-4.03467,-0.444092
687,787.167,-0.27492,-0.35192,10.3102,0.397981,-1.16322,-2.86133,-4.03271,-0.444336
688,787.676,-0.307837,-0.349581,10.2991,0.333459,-1.11704,6.40698,-4.02832,-0.441162
689,788.184,-0.28253,-0.341162,10.302,0.308383,-1.14224,7.89697,-4.03662,-0.445312
690,788.693,-0.285527,-0.350096,10.3176,0.163918,-1.02378,-2.91431,-4.03247,-0.442383
691,789.202,-0.278911,-0.349466,10.3134,0.283947,-1.07554,2.16187,-4.03125,-0.438721
692,789.71,-0.298345,-0.353293,10.3029,0.301031,-1.12861,7.05371,-4.03271,-0.443359
693,790.219,-0.287995,-0.353644,10.3132,0.285816,-1.11373,7.11108,-4.03687,-0.440186
694,790.727,-0.287802,-0.344316,10.3076,0.318808,-1.11573,0.813232,-4.03491,-0.443359
695,791.236,-0.271729,-0.34094,10.2894,0.228312,-1.10123,4.90088,-4.03198,-0.444824
696,791.745,-0.266579,-0.362485,10.2843,0.247446,-1.05129,-2.87476,-4.03101,-0.445557
697,792.253,-0.290627,-0.351655,10.296,0.22319,-1.00959,-5.53882,-4.03149,-0.443848
698,792.762,-0.27301,-0.357306,10.2853,0.279823,-1.11104,0.237305,-4.03564,-0.442627
699,793.27,-0.293853,-0.36089,10.2953,0.138996,-1.08312,-5.86523,-4.03101,-0.443848
700,793.779,-0.276629,-0.349917,10.2951,0.273727,-1.05251,-2.23022,-4.03418,-0.439697
701,794.288,-0.279233,-0.351955,10.2883,0.269987,-1.09106,0.430664,-4.03125,-0.440918
702,794.796,-0.292744,-0.338251,10.297,0.245141,-0.988761,-6.06348,-4.03149,-0.44043
703,795.305,-0.273146,-0.343616,10.2879,0.258742,-0.972188,6.53418,-4.03662,-0.437744
704,795.813,-0.273789,-0.359738,10.3034,0.212534,-1.10661,3.90723,-4.03418,-0.441406
705,796.322,-0.287716,-0.349667,10.3215,0.28428,-1.19122,6.82861,-4.03003,-0.437256
706,796.831,-0.279225,-0.348716,10.3153,0.267758,-1.14798,2.00146,-4.0293,-0.443848
707,797.339,-0.287158,-0.358508,10.3186,0.289146,-1.13655,-3.85254,-4.03735,-0.443359
708,797.848,-0.298617,-0.348658,10.3087,0.160153,-1.05057,-7.58301,-4.03223,-0.441895
709,798.356,-0.290377,-0.350954,10.3321,0.308997,-1.08171,7.77246,-4.02954,-0.439453
710,798.865,-0.271922,-0.334066,10.3316,0.183897,-1.00052,-1.8584,-4.03784,-0.440186
711,799.374,-0.281636,-0.335404,10.3127,0.177084,-1.12298,5.95557,-4.03589,-0.444336
712,799.882,-0.280599,-0.350389,10.293,0.198882,-1.16255,-0.388916,-4.03784,-0.438232
713,800.391,-0.269583,-0.354087,10.3217,0.204107,-1.16711,-3.97656,-4.03101,-0.441895
714,800.899,-0.277216,-0.349573,10.3079,0.351158,-1.06005,-0.936523,-4.02905,-0.441895
715,801.408,-0.279769,-0.345883,10.3065,0.211048,-1.00718,-3.03198,-4.03125,-0.437744
716,801.917,-0.288345,-0.361526,10.3008,0.249239,-1.17039,-0.516357,-4.02954,-0.442383
717,802.425,-0.281057,-0.358064,10.3352,0.147115,-1.14301,0.550537,-4.03418,-0.438721
718,802.934,-0.288095,-0.339474,10.2914,0.266785,-1.0372,-0.723877,-4.03125,-0.439941
719,803.443,-0.287945,-0.351984,10.2994,0.255643,-1.06143,-4.29297,-4.02979,-0.442627
720,803.951,-0.280907,-0.35144,10.2822,0.306538,-1.08,6.14673,-4.03003,-0.44043
721,804.46,-0.286457,-0.349895,10.2849,0.343577,-1.00413,-6.75806,-4.03003,-0.443359
722,804.968,-0.29248,-0.331849,10.2834,0.278542,-1.1103,-0.921631,-4.03247,-0.442139
723,805.477,-0.298259,-0.346977,10.2848,0.27283,-1.14088,3.8584,-4.03687,-0.442871
724,805.986,-0.287258,-0.35089,10.2969,0.272292,-1.06179,6.14307,-4.0271,-0.441162
725,806.494,-0.269941,-0.356176,10.2991,0.265735,-1.14923,-2.97998,-4.03101,-0.441895
726,807.003,-0.26718,-0.353994,10.2934,0.31056,-0.949776,-3.48584,-4.03711,-0.441895
727,807.511,-0.301056,-0.362406,10.3162,0.240659,-1.00495,1.39014,-4.03467,-0.437256
728,808.02,-0.283989,-0.336877,10.2971,0.214609,-1.16834,-3.55664,-4.03125,-0.441406
729,808.529,-0.2917,-0.363286,10.3028,0.232129,-1.07001,6.68555,-4.03247,-0.438721
730,809.037,-0.272087,-0.322715,10.2865,0.237867,-1.14209,6.52881,-4.03271,-0.443848
731,809.546,-0.280141,-0.328523,10.3082,0.260433,-1.03046,-6.02539,-4.02881,-0.443848
732,810.054,-0.263718,-0.328759,10.2918,0.230567,-1.07723,1.79395,-4.03076,-0.4375
733,810.563,-0.281464,-0.337242,10.3239,0.224726,-1.03571,3.74976,-4.03345,-0.441406
734,811.072,-0.293438,-0.342643,10.298,0.244782,-1.06161,-6.17969,-4.03101,-0.441162
735,811.58,-0.279805,-0.337764,10.2781,0.228338,-1.1259,4.58911,-4.03394,-0.443359
736,812.089,-0.287101,-0.336542,10.281,0.298034,-1.05116,7.00391,-4.0354,-0.440186
737,812.597,-0.267552,-0.34672,10.2978,0.330872,-1.20646,-7.47925,-4.03174,-0.438965
738,813.106,-0.278124,-0.34378,10.3048,0.15188,-1.01819,-0.656494,-4.03418,-0.445312
739,813.615,-0.277273,-0.360718,10.2834,0.336891,-1.09211,7.99878,-4.03418,-0.441162
740,814.123,-0.278303,-0.33441,10.2995,0.164021,-1.05395,-3.71753,-4.02856,-0.444824
741,814.632,-0.27527,-0.346949,10.2998,0.214481,-0.989785,-0.0773926,-4.03589,-0.442139
742,815.14,-0.284883,-0.354738,10.3235,0.357972,-1.05341,-0.727295,-4.02856,-0.444336
743,815.649,-0.270006,-0.353743,10.2796,0.261816,-1.08481,-5.95605,-4.03345,-0.444824
744,816.158,-0.271865,-0.338716,10.2943,0.252492,-1.1061,0.762939,-4.03613,-0.443604
745,816.666,-0.294547,-0.333995,10.2805,0.254004,-1.13515,-1.09106,-4.03125,-0.443359
746,817.175,-0.257002,-0.347979,10.2879,0.302799,-1.13056,-1.86572,-4.03247,-0.441162
747,817.683,-0.27512,-0.345948,10.2939,0.285996,-1.05818,7.51099,-4.03027,-0.444336
748,818.192,-0.285191,-0.35074,10.2845,0.221038,-1.07618,3.42017,-4.03101,-0.44165
749,818.701,-0.286715,-0.348829,10.2904,0.240069,-1.06991,-2.54785,-4.03223,-0.443848
750,819.209,-0.289139,-0.354674,10.2819,0.270627,-1.08712,-6.86304,-4.03003,-0.443359
751,819.718,-0.274197,-0.358407,10.2805,0.221115,-1.00615,0.428467,-4.02954,-0.440674
752,820.227,-0.291342,-0.341126,10.3099,0.196807,-1.0604,-1.33838,-4.03394,-0.445312
753,820.735,-0.271765,-0.342364,10.3189,0.357511,-1.20835,-7.06006,-4.03174,-0.44165
754,821.244,-0.27459,-0.343265,10.279,0.246345,-1.13635,-0.253662,-4.02979,-0.445801
755,821.752,-0.275685,-0.359337,10.3021,0.251775,-1.05428,7.36865,-4.0332,-0.442383
756,822.261,-0.288231,-0.347321,10.3182,0.248471,-1.03909,-1.02222,-4.03589,-0.440918
757,822.77,-0.264104,-0.345061,10.2915,0.361558,-1.11248,-1.12988,-4.03296,-0.444336
758,823.278,-0.28341,-0.344853,10.3015,0.336866,-1.04214,-3.24268,-4.03076,-0.440674
759,823.787,-0.271679,-0.334359,10.2871,0.30139,-1.12239,6.2666,-4.03296,-0.446289
760,824.295,-0.280041,-0.360553,10.3022,0.253338,-1.1177,-6.05688,-4.03638,-0.440186
761,824.804,-0.280935,-0.351248,10.3041,0.232078,-1.01458,-0.973633,-4.03223,-0.437988
762,825.313,-0.305083,-0.351962,10.3054,0.302517,-1.0865,-5.23975,-4.02783,-0.441406
763,825.821,-0.297058,-0.354774,10.2937,0.258409,-1.04726,5.67334,-4.02905,-0.439209
764,826.33,-0.263117,-0.357764,10.3122,0.255028,-1.01578,-3.08569,-4.03003,-0.441895
765,826.838,-0.29655,-0.336105,10.288,0.302773,-1.02311,-6.7063,-4.02979,-0.440674
766,827.347,-0.283024,-0.341026,10.32,0.235126,-1.12131,5.427,-4.03247,-0.444336
767,827.856,-0.294382,-0.343251,10.2719,0.213712,-1.08164,1.74219,-4.03125,-0.441895
768,828.364,-0.275513,-0.327722,10.2897,0.235433,-1.06865,-7.21582,-4.03247,-0.44043
769,828.873,-0.272681,-0.336126,10.3065,0.369985,-1.07613,-2.02344,-4.03174,-0.442383
770,829.381,-0.283167,-0.363193,10.2887,0.208461,-1.11627,-3.22925,-4.03247,-0.440186
771,829.89,-0.295391,-0.336842,10.2895,0.297445,-1.06363,-7.58301,-4.03223,-0.440918
772,830.399,-0.30361,-0.358043,10.2804,0.278721,-1.18919,5.63892,-4.03442,-0.442139
773,830.907,-0.284819,-0.329996,10.2775,0.29555,-1.13591,-3.927,-4.02881,-0.44458
774,831.416,-0.273367,-0.344638,10.2972,0.205593,-1.10423,-1.51245,-4.03003,-0.444336
775,831.924,-0.262989,-0.356297,10.2966,0.23551,-1.0228,4.00952,-4.03174,-0.442139
776,832.433,-0.281772,-0.34177,10.2949,0.228415,-1.07672,-7.12549,-4.02979,-0.441406
777,832.942,-0.2714,-0.347735,10.2997,0.279592,-1.15725,-0.619141,-4.03101,-0.437744
778,833.45,-0.276815,-0.352263,10.2824,0.2528,-1.01404,-0.466797,-4.02734,-0.442871
779,833.959,-0.276929,-0.333287,10.3004,0.251878,-1.02029,1.70117,-4.03174,-0.442871
780,834.467,-0.291457,-0.340039,10.3137,0.26722,-1.0906,-2.61304,-4.03076,-0.440674
781,834.976,-0.281035,-0.342171,10.3221,0.272984,-1.06929,-7.63184,-4.0354,-0.439453
782,835.485,-0.276729,-0.362713,10.2801,0.369088,-0.987198,7.21021,-4.03247,-0.440674
783,835.993,-0.284869,-0.351784,10.3013,0.188585,-1.08973,4.37695,-4.03198,-0.443848
784,836.502,-0.290219,-0.332278,10.2922,0.0946318,-1.15651,7.35425,-4.03052,-0.439209
785,837.01,-0.266544,-0.349359,10.3179,0.272932,-0.994575,1.9519,-4.03125,-0.441895
786,837.519,-0.2766,-0.335719,10.3115,0.200931,-1.11886,5.93872,-4.03125,-0.44043
787,838.028,-0.299969,-0.349896,10.2912,0.209435,-1.05738,-6.53491,-4.03174,-0.438232
788,838.536,-0.287809,-0.349359,10.3306,0.200956,-1.1164,6.95093,-4.03467,-0.442383
789,839.045,-0.272266,-0.348322,10.2938,0.340887,-1.14073,-4.60645,-4.03076,-0.440674
790,839.554,-0.27105,-0.325426,10.3097,0.177494,-1.0624,-0.71167,-4.03247,-0.443359
791,840.062,-0.293388,-0.339324,10.2985,0.206976,-1.10782,-0.463623,-4.02979,-0.439453
792,840.571,-0.300777,-0.351054,10.3038,0.271114,-1.10661,1.89966,-4.03125,-0.442139
793,841.079,-0.289905,-0.360596,10.3086,0.282282,-1.07682,0.901611,-4.03027,-0.444336
794,841.588,-0.28479,-0.354545,10.297,0.385686,-1.07956,4.04785,-4.0293,-0.439209
795,842.097,-0.294554,-0.340361,10.3072,0.242554,-1.03932,7.95166,-4.03784,-0.441895
796,842.605,-0.287401,-0.356648,10.2776,0.280796,-0.964222,3.17114,-4.03271,-0.442627
797,843.114,-0.275785,-0.357993,10.3116,0.30472,-1.02232,-4.17407,-4.03198,-0.44165
798,843.622,-0.287909,-0.349945,10.3131,0.306154,-1.06612,-4.01367,-4.03418,-0.439941
799,844.131,-0.274905,-0.374487,10.2923,0.198523,-0.957793,1.47559,-4.02808,-0.443115
800,844.64,-0.279247,-0.329789,10.3302,0.200649,-1.06496,1.70825,-4.03711,-0.445312
801,845.148,-0.28856,-0.353408,10.3104,0.136537,-1.17467,-7.23071,-4.02954,-0.438721
802,845.657,-0.269054,-0.333108,10.2927,0.263916,-1.09427,-4.24341,-4.02734,-0.443359
803,846.165,-0.271357,-0.36463,10.2907,0.257026,-1.10075,4.32446,-4.03223,-0.442139
804,846.674,-0.279705,-0.348358,10.3136,0.26553,-1.12393,-5.81323,-4.03052,-0.438477
805,847.183,-0.288095,-0.345282,10.3241,0.179415,-0.932179,-6.32275,-4.03369,-0.446289
806,847.691,-0.275528,-0.323995,10.2998,0.26804,-1.14193,0.691406,-4.03027,-0.440674
807,848.2,-0.270864,-0.330626,10.3016,0.334483,-1.08025,2.84302,-4.03076,-0.439453
808,848.708,-0.278997,-0.344967,10.2702,0.283229,-1.06701,-6.65723,-4.0271,-0.44043
809,849.217,-0.260514,-0.37664,10.3137,0.248599,-1.05917,-6.02295,-4.03052,-0.443848
810,849.726,-0.27542,-0.345053,10.3146,0.174343,-0.929669,4.48169,-4.03198,-0.442383
811,850.234,-0.292458,-0.339874,10.3057,0.261457,-1.15712,-2.22705,-4.03662,-0.437256
812,850.743,-0.267016,-0.343916,10.3122,0.271063,-1.18617,5.67554,-4.03052,-0.447266
813,851.251,-0.272302,-0.356326,10.2749,0.284305,-0.985789,7.15698,-4.03174,-0.440674
814,851.76,-0.289068,-0.358472,10.2607,0.269449,-1.21885,-7.38599,-4.03125,-0.444824
815,852.269,-0.296678,-0.344796,10.328,0.277671,-1.02255,5.78125,-4.03125,-0.438965
816,852.777,-0.282931,-0.335869,10.3151,0.199035,-1.08484,7.04028,-4.03125,-0.44043
817,853.286,-0.288295,-0.333315,10.2919,0.278081,-1.06376,2.10889,-4.03101,-0.441895
818,853.794,-0.286285,-0.356991,10.2873,0.304899,-1.11517,-3.85376,-4.03638,-0.435791
819,854.303,-0.29082,-0.327979,10.2797,0.253747,-1.0978,-2.59961,-4.03247,-0.444336
820,854.812,-0.277967,-0.345096,10.2642,0.242887,-1.09734,2.57593,-4.02734,-0.440186
821,855.32,-0.288946,-0.341534,10.3119,0.338889,-1.02421,3.10498,-4.03052,-0.443604
822,855.829,-0.271908,-0.352571,10.292,0.3727,-1.10464,5.9375,-4.03027,-0.44043
823,856.338,-0.248747,-0.340111,10.2962,0.368371,-1.09762,2.31519,-4.02832,-0.440186
824,856.846,-0.293574,-0.335311,10.3279,0.27365,-1.07411,-1.80664,-4.03711,-0.443848
825,857.355,-0.313795,-0.328494,10.3232,0.277108,-1.14063,-2.59839,-4.03345,-0.438232
826,857.863,-0.289111,-0.334918,10.3076,0.281872,-1.04383,1.05542,-4.02783,-0.443848
827,858.372,-0.263532,-0.350754,10.2775,0.18423,-1.07219,6.79175,-4.03345,-0.437988
828,858.881,-0.248647,-0.36634,10.3208,0.249547,-1.21447,2.15942,-4.02954,-0.439941
829,859.389,-0.276157,-0.349882,10.2963,0.291067,-1.02395,-3.80176,-4.03613,-0.444336
830,859.898,-0.288982,-0.360303,10.3042,0.361276,-1.14165,5.35571,-4.02686,-0.439697
831,860.406,-0.285305,-0.329732,10.3176,0.298009,-1.01294,1.49194,-4.03223,-0.44043
832,860.915,-0.283367,-0.346184,10.3054,0.253773,-1.03154,-2.4397,-4.03467,-0.441162
833,861.424,-0.294397,-0.336377,10.303,0.325365,-0.998981,4.64404,-4.03564,-0.441162
834,861.932,-0.276844,-0.342242,10.2643,0.239429,-1.16517,-1.82593,-4.03101,-0.440918
835,862.441,-0.28577,-0.340984,10.2823,0.226673,-1.08356,1.63672,-4.03101,-0.444092
836,862.949,-0.284361,-0.359295,10.2776,0.268219,-1.0809,-0.397705,-4.03149,-0.442871
837,863.458,-0.267989,-0.347671,10.2864,0.333075,-1.00446,6.73682,-4.03174,-0.439697
838,863.967,-0.275864,-0.338994,10.2929,0.301749,-1.0135,-6.91479,-4.03052,-0.443359
839,864.475,-0.271536,-0.34629,10.2652,0.256744,-1.05318,6.82739,-4.02905,-0.441406
840,864.984,-0.291707,-0.353944,10.2758,0.333177,-1.06209,0.703857,-4.03149,-0.44165
841,865.492,-0.285499,-0.35742,10.3197,0.176444,-1.11325,-3.4043,-4.02759,-0.445801
842,866.001,-0.279204,-0.346155,10.2947,0.212944,-1.03827,0.483154,-4.03125,-0.441162
843,866.51,-0.272287,-0.343687,10.2811,0.148985,-1.02836,-0.935791,-4.02954,-0.444336
844,867.018,-0.287187,-0.340482,10.3405,0.208974,-1.00569,-4.86792,-4.03125,-0.440186
845,867.527,-0.297358,-0.340575,10.3088,0.267246,-1.04652,-3.87549,-4.02808,-0.443604
846,868.035,-0.289318,-0.334252,10.293,0.108617,-1.07342,6.25171,-4.03003,-0.442383
847,868.544,-0.268682,-0.343859,10.3279,0.189968,-1.03553,-0.673096,-4.03003,-0.439209
848,869.053,-0.269204,-0.344917,10.2839,0.342219,-1.12487,-6.39087,-4.03003,-0.445312
849,869.561,-0.264484,-0.327214,10.294,0.240582,-1.08317,-7.15942,-4.03613,-0.44165
850,870.07,-0.28758,-0.354037,10.2928,0.298444,-1.1032,0.270264,-4.0293,-0.442871
851,870.578,-0.281293,-0.35167,10.2738,0.431152,-1.03274,5.62036,-4.02881,-0.440918
852,871.087,-0.271543,-0.351112,10.306,0.289863,-1.03113,6.51367,-4.02979,-0.441162
853,871.596,-0.293989,-0.361025,10.3115,0.234562,-1.03033,-7.53125,-4.03198,-0.442383
854,872.104,-0.268618,-0.354266,10.3008,0.255182,-1.06258,-6.70923,-4.02734,-0.440186
855,872.613,-0.281343,-0.350697,10.2804,0.286867,-1.11412,-1.96948,-4.03296,-0.442871
856,873.122,-0.270671,-0.357978,10.2981,0.278388,-1.05154,-5.76147,-4.03003,-0.440674
857,873.63,-0.259884,-0.34923,10.291,0.142915,-1.18448,6.41089,-4.03125,-0.443848
858,874.139,-0.294797,-0.35875,10.313,0.180542,-1.07926,0.900391,-4.02954,-0.442383
859,874.647,-0.292251,-0.351026,10.3126,0.199035,-1.16038,-5.91919,-4.02979,-0.439697
860,875.156,-0.292329,-0.359223,10.2782,0.268143,-1.00884,3.57764,-4.03101,-0.440918
861,875.665,-0.297658,-0.348351,10.2917,0.257128,-1.02152,-1.66943,-4.03027,-0.439209
862,876.173,-0.289411,-0.335625,10.3107,0.229824,-1.10382,1.05908,-4.03027,-0.439941
863,876.682,-0.283954,-0.351798,10.2961,0.247907,-1.1311,5.25439,-4.02954,-0.443848
864,877.19,-0.280642,-0.334017,10.323,0.225828,-1.01276,5.95166,-4.03247,-0.44043
865,877.699,-0.271357,-0.344316,10.3021,0.266478,-1.16463,-0.394775,-4.03394,-0.442383
866,878.208,-0.282494,-0.33275,10.2997,0.260023,-1.11558,7.51025,-4.02954,-0.441162
867,878.716,-0.275585,-0.354102,10.2907,0.279823,-1.04872,-3.07104,-4.0332,-0.443848
868,879.225,-0.258275,-0.353737,10.2831,0.235869,-1.17267,-0.304932,-4.03052,-0.443115
869,879.733,-0.284948,-0.345618,10.2996,0.160768,-1.11081,-2.7207,-4.02881,-0.438477
870,880.242,-0.28057,-0.350275,10.3143,0.167786,-1.10318,1.00562,-4.02979,-0.439941
871,880.751,-0.285048,-0.36139,10.2602,0.176085,-1.07795,-0.358154,-4.03003,-0.440186
872,881.259,-0.265621,-0.356112,10.2983,0.239327,-1.09006,2.26562,-4.03052,-0.443359
873,881.768,-0.271822,-0.349373,10.301,0.226648,-1.09826,5.30591,-4.02905,-0.439697
874,882.276,-0.270485,-0.340068,10.2934,0.219604,-1.05377,7.00342,-4.03491,-0.443359
875,882.785,-0.280635,-0.357778,10.2995,0.303542,-1.1051,0.89917,-4.02856,-0.439941
876,883.294,-0.281614,-0.357221,10.3202,0.308383,-1.03843,5.27148,-4.03418,-0.439453
877,883.802,-0.28964,-0.3528,10.3085,0.298982,-1.11332,4.15259,-4.0293,-0.441895
878,884.311,-0.292101,-0.351798,10.2795,0.232539,-1.07516,6.1604,-4.03198,-0.441162
879,884.819,-0.301607,-0.316764,10.324,0.278952,-1.07449,6.24854,-4.02734,-0.444336
880,885.328,-0.270792,-0.337178,10.3006,0.364298,-1.08763,-2.58936,-4.04028,-0.437988
881,885.837,-0.275871,-0.344989,10.2982,0.195936,-1.0425,-4.66064,-4.02954,-0.443359
882,886.345,-0.261816,-0.33785,10.2871,0.22027,-1.16324,-3.28174,-4.03223,-0.443359
883,886.854,-0.274991,-0.365031,10.3014,0.256309,-1.02324,7.14404,-4.03052,-0.438721
884,887.362,-0.279583,-0.327257,10.2786,0.199087,-1.1425,2.073,-4.03491,-0.445312
885,887.871,-0.296507,-0.342078,10.2911,0.302952,-1.08169,-7.89526,-4.03418,-0.440186
886,888.38,-0.287015,-0.325769,10.2949,0.236227,-1.05318,-2.96509,-4.03369,-0.441406
887,888.888,-0.283303,-0.345268,10.3048,0.312609,-1.12882,7.68457,-4.03418,-0.437988
888,889.397,-0.271229,-0.336041,10.3067,0.234127,-1.08154,3.01416,-4.03296,-0.443604
889,889.906,-0.259076,-0.33411,10.3164,0.206489,-1.03084,0.00732422,-4.02856,-0.444824
890,890.414,-0.276136,-0.338895,10.2859,0.264454,-1.10871,3.0166,-4.03491,-0.437256
891,890.923,-0.290713,-0.335912,10.3307,0.228133,-0.954899,-6.96851,-4.02954,-0.444824
892,891.431,-0.278639,-0.342485,10.2944,0.295242,-1.08786,1.6333,-4.02832,-0.441162
893,891.94,-0.29509,-0.333444,10.2929,0.218682,-1.16527,-6.68433,-4.03784,-0.441406
894,892.449,-0.277509,-0.335883,10.3224,0.26635,-1.10467,-5.55371,-4.02832,-0.440918
895,892.957,-0.288274,-0.322329,10.3254,0.275904,-1.16245,7.05566,-4.03467,-0.442139
896,893.466,-0.291643,-0.338336,10.288,0.327644,-1.0528,-2.40625,-4.02856,-0.439941
897,893.974,-0.275041,-0.358193,10.2832,0.253158,-1.09898,1.79443,-4.03125,-0.44165
898,894.483,-0.28125,-0.351455,10.2859,0.209998,-1.13243,-5.44727,-4.02954,-0.443848
899,894.992,-0.282115,-0.342815,10.3397,0.177315,-1.09401,4.7959,-4.03149,-0.441895
900,895.5,-0.269805,-0.340325,10.2993,0.233077,-1.1875,-5.6958,-4.03174,-0.439697
901,896.009,-0.265678,-0.376762,10.295,0.269372,-1.05116,2.55078,-4.03955,-0.443359
902,896.517,-0.270821,-0.359273,10.2768,0.252262,-1.0177,0.44458,-4.03369,-0.44165
903,897.026,-0.281271,-0.346856,10.3076,0.28889,-1.0998,-5.79248,-4.03809,-0.442383
904,897.535,-0.284297,-0.361755,10.3127,0.220039,-0.944653,-3.97974,-4.02856,-0.443604
905,898.043,-0.296543,-0.343,10.312,0.243041,-1.00175,-3.55859,-4.02979,-0.441895
906,898.552,-0.279333,-0.338516,10.3208,0.296395,-1.06261,3.69653,-4.03369,-0.445312
907,899.06,-0.282845,-0.342514,10.3199,0.23656,-1.18271,7.66943,-4.03101,-0.443115
908,899.569,-0.281042,-0.350411,10.287,0.245833,-1.13953,5.51782,-4.03052,-0.442871
909,900.078,-0.278138,-0.328945,10.3138,0.315247,-1.08197,-3.08862,-4.02808,-0.438721
910,900.586,-0.278618,-0.345869,10.2964,0.339222,-1.07977,-0.411621,-4.0293,-0.442383
911,901.095,-0.280728,-0.335876,10.254,0.187278,-1.07593,5.93774,-4.03052,-0.442383
912,901.603,-0.291414,-0.337514,10.3207,0.24071,-1.0123,-1.07837,-4.03271,-0.442139
913,902.112,-0.283503,-0.349739,10.3019,0.203595,-1.0372,-1.98413,-4.03027,-0.442383
914,902.621,-0.290878,-0.350661,10.3032,0.302133,-1.06033,4.94019,-4.03003,-0.437744
915,903.129,-0.280685,-0.335647,10.3236,0.284792,-1.10702,-6.07446,-4.03125,-0.439941
916,903.638,-0.279554,-0.347106,10.2965,0.223164,-1.07367,-4.60645,-4.03052,-0.439453
917,904.146,-0.281586,-0.362756,10.2701,0.273035,-1.11704,1.31982,-4.0293,-0.440918
918,904.655,-0.271579,-0.354473,10.3204,0.331154,-1.07331,-5.69214,-4.03467,-0.442871
919,905.164,-0.286815,-0.343787,10.3039,0.0952209,-1.18876,-3.23022,-4.03198,-0.437744
920,905.672,-0.278432,-0.368772,10.3005,0.275366,-1.10333,3.05225,-4.03003,-0.441895
921,906.181,-0.278947,-0.346713,10.2925,0.176623,-1.126,-7.96729,-4.02808,-0.437256
922,906.69,-0.274612,-0.330254,10.2618,0.196218,-1.0059,0.344482,-4.03711,-0.442871
923,907.198,-0.285348,-0.341669,10.3067,0.23551,-1.11427,2.17749,-4.03491,-0.441406
924,907.707,-0.285627,-0.321484,10.2988,0.222652,-1.13763,-5.96948,-4.03125,-0.443359
925,908.215,-0.287015,-0.355876,10.3342,0.269884,-1.12037,7.21289,-4.03442,-0.444824
926,908.724,-0.267924,-0.357714,10.2985,0.135794,-1.02664,1.79419,-4.03101,-0.439209
927,909.233,-0.291679,-0.348064,10.2999,0.271472,-1.05615,-1.96802,-4.03394,-0.441895
928,909.741,-0.273575,-0.350153,10.3329,0.300288,-1.18005,2.38281,-4.03149,-0.437744
929,910.25,-0.261343,-0.349352,10.2907,0.308792,-1.18448,4.69092,-4.03149,-0.44043
930,910.758,-0.281235,-0.336749,10.3063,0.291733,-1.03156,-7.6499,-4.03003,-0.442871
931,911.267,-0.273768,-0.355646,10.3156,0.311021,-1.03251,-3.22925,-4.03247,-0.442139
932,911.776,-0.284511,-0.349917,10.3006,0.289326,-1.04665,-6.7417,-4.03418,-0.444336
933,912.284,-0.287029,-0.346705,10.2881,0.227621,-1.10346,2.89453,-4.03003,-0.440186
934,912.793,-0.284783,-0.366104,10.3112,0.174676,-1.05321,-6.90137,-4.03296,-0.445312
935,913.301,-0.265399,-0.343029,10.3132,0.303439,-1.1113,-7.84106,-4.0354,-0.4375
936,913.81,-0.291972,-0.348887,10.2936,0.180132,-1.10123,-0.517578,-4.02832,-0.439209
937,914.319,-0.281886,-0.35898,10.2781,0.2528,-1.19009,6.09595,-4.03125,-0.442871
938,914.827,-0.296335,-0.336277,10.3017,0.348008,-1.10008,0.687744,-4.02734,-0.441162
939,915.336,-0.286657,-0.343716,10.3103,0.147115,-1.03458,-4.16943,-4.03589,-0.442383
940,915.844,-0.290227,-0.342628,10.3018,0.225495,-1.02549,5.0061,-4.03149,-0.438721
941,916.353,-0.287866,-0.336735,10.2996,0.180644,-1.10418,6.63306,-4.03223,-0.438965
942,916.862,-0.278467,-0.335368,10.3022,0.311431,-0.954028,1.79395,-4.03076,-0.44043
943,917.37,-0.269104,-0.339732,10.2883,0.259306,-1.02915,2.26416,-4.02954,-0.44165
944,917.879,-0.263418,-0.342528,10.2879,0.163995,-1.12516,6.94727,-4.03223,-0.440918
945,918.387,-0.266808,-0.342965,10.2906,0.193426,-1.12236,3.12158,-4.03491,-0.439209
946,918.896,-0.289139,-0.358751,10.3023,0.128161,-1.07644,-4.64526,-4.03271,-0.444336
947,919.405,-0.28635,-0.324818,10.3155,0.120938,-1.17897,-3.03394,-4.02954,-0.44043
948,919.913,-0.27037,-0.343894,10.281,0.198754,-1.11604,-3.64771,-4.03296,-0.444092
949,920.422,-0.29758,-0.353014,10.2913,0.183795,-1.14977,-3.2959,-4.02979,-0.442383
950,920.93,-0.276593,-0.346448,10.2882,0.229414,-1.05994,-5.0144,-4.03149,-0.437744
951,921.439,-0.278267,-0.333623,10.2901,0.273342,-1.00336,2.22876,-4.03418,-0.442871
952,921.948,-0.270664,-0.335461,10.3153,0.241914,-1.1029,-6.16479,-4.03394,-0.440674
953,922.456,-0.278839,-0.325919,10.296,0.330718,-1.06476,-2.19312,-4.03101,-0.441162
954,922.965,-0.280055,-0.326048,10.2891,0.202596,-1.0956,3.22632,-4.03442,-0.442871
955,923.474,-0.279805,-0.338537,10.3048,0.170809,-1.04429,1.01855,-4.03149,-0.437744
956,923.982,-0.262373,-0.328924,10.2946,0.20859,-1.08994,4.53906,-4.03564,-0.445801
957,924.491,-0.278289,-0.351233,10.3057,0.254977,-1.07101,-2.91333,-4.03296,-0.440186
958,924.999,-0.268561,-0.348351,10.2878,0.220731,-1.03927,0.846436,-4.02832,-0.438965
959,925.508,-0.282573,-0.355818,10.2887,0.219066,-1.19805,0.324707,-4.03052,-0.439941
960,926.017,-0.270056,-0.338608,10.3123,0.318346,-1.11793,-0.764648,-4.03223,-0.441162
961,926.525,-0.279812,-0.341484,10.3198,0.20111,-1.08615,2.9624,-4.03369,-0.444824
962,927.034,-0.276815,-0.346477,10.3236,0.220321,-1.1758,6.72241,-4.02905,-0.439697
963,927.542,-0.272788,-0.349903,10.3105,0.307717,-1.03571,-3.66699,-4.0271,-0.439941
964,928.051,-0.264448,-0.341684,10.2888,0.399313,-1.03023,-3.71777,-4.02832,-0.440674
965,928.56,-0.287895,-0.362298,10.3251,0.308511,-1.03271,5.84692,-4.03296,-0.44043
966,929.068,-0.269076,-0.332121,10.3064,0.263993,-1.16514,-7.99878,-4.03613,-0.440918
967,929.577,-0.277924,-0.351541,10.3164,0.296959,-1.09432,-3.66333,-4.02979,-0.440186
968,930.085,-0.262702,-0.337071,10.2841,0.329796,-1.15753,-3.48828,-4.03516,-0.443359
969,930.594,-0.276693,-0.344123,10.2962,0.292937,-1.05743,-1.8291,-4.02856,-0.440674
970,931.103,-0.288138,-0.345661,10.2946,0.322112,-1.03535,1.84351,-4.02881,-0.444336
971,931.611,-0.274683,-0.361999,10.2955,0.21215,-1.07549,-3.50562,-4.03003,-0.438477
972,932.12,-0.284984,-0.343401,10.2835,0.248496,-1.20003,-4.87012,-4.02979,-0.442871
973,932.628,-0.283481,-0.364359,10.3217,0.224419,-1.09754,5.98999,-4.03027,-0.442871
974,933.137,-0.279347,-0.352864,10.3116,0.20526,-1.10759,5.35938,-4.02954,-0.442139
975,933.646,-0.272015,-0.357449,10.3073,0.270166,-1.17544,4.85083,-4.03369,-0.443359
976,934.154,-0.289397,-0.344867,10.3153,0.291759,-1.1394,2.64673,-4.0332,-0.443115
977,934.663,-0.260478,-0.339295,10.2906,0.252902,-1.1563,6.67236,-4.03076,-0.442383
978,935.171,-0.279819,-0.329253,10.2841,0.203339,-1.14229,6.25122,-4.02979,-0.442383
979,935.68,-0.272588,-0.33167,10.2927,0.25992,-1.16624,5.11426,-4.03394,-0.440186
980,936.189,-0.279669,-0.34363,10.2966,0.272343,-1.01107,-4.22656,-4.03174,-0.443359
981,936.697,-0.290527,-0.348479,10.308,0.269039,-1.13814,6.95483,-4.0376,-0.439209
982,937.206,-0.290777,-0.337679,10.2931,0.221704,-1.05118,-5.23486,-4.03125,-0.443359
983,937.714,-0.278582,-0.342572,10.3196,0.231156,-1.14127,3.00073,-4.03101,-0.438477
984,938.223,-0.260399,-0.358507,10.3142,0.262789,-1.04142,-6.44482,-4.02881,-0.440186
985,938.732,-0.271901,-0.344674,10.3379,0.267553,-1.00182,-4.69287,-4.03638,-0.442383
986,939.24,-0.288803,-0.343866,10.3166,0.224778,-1.11781,3.94336,-4.02979,-0.441162
987,939.749,-0.266336,-0.348622,10.2896,0.23674,-1.12815,0.376709,-4.03027,-0.443359
988,940.258,-0.273396,-0.344152,10.2853,0.22926,-1.08066,-6.65234,-4.03076,-0.442139
989,940.766,-0.290942,-0.335462,10.2897,0.314479,-1.13622,5.09692,-4.02954,-0.442383
990,941.275,-0.2813,-0.348938,10.28,0.264275,-1.03855,6.41016,-4.03076,-0.442383
991,941.783,-0.276958,-0.330976,10.301,0.185178,-1.11486,5.62036,-4.02856,-0.441162
992,942.292,-0.282208,-0.33991,10.2729,0.241068,-1.07979,1.26929,-4.03076,-0.443359
993,942.801,-0.290999,-0.339145,10.2783,0.288352,-1.07564,2.5415,-4.03271,-0.439209
994,943.309,-0.274977,-0.344924,10.3154,0.259972,-1.09334,7.19727,-4.03076,-0.439453
995,943.818,-0.276078,-0.343565,10.2991,0.269551,-1.16237,-3.8728,-4.03003,-0.438477
996,944.326,-0.276622,-0.343637,10.2958,0.191863,-1.09432,-4.24146,-4.0293,-0.438965
997,944.835,-0.277416,-0.34735,10.3002,0.358382,-1.05264,-0.763916,-4.03223,-0.442871
998,945.344,-0.288317,-0.339796,10.287,0.294115,-1.09739,-5.27051,-4.03613,-0.438232
999,945.852,-0.277881,-0.346419,10.3231,0.25157,-1.09921,4.80029,-4.03491,-0.445801
1000,946.361,-0.282044,-0.353007,10.304,0.27219,-1.06522,6.58911,-4.03882,-0.441162
1001,946.869,-0.269369,-0.347192,10.3077,0.272599,-1.20733,2.96069,-4.03223,-0.442627
1002,947.378,-0.267531,-0.350632,10.3042,0.236125,-1.07774,1.79224,-4.02954,-0.442383
1003,947.887,-0.274033,-0.332714,10.3158,0.27949,-1.09877,7.93115,-4.03052,-0.437744
1004,948.395,-0.273553,-0.362449,10.3046,0.259178,-1.09245,4.10083,-4.02979,-0.443848
1005,948.904,-0.283904,-0.347006,10.3132,0.278286,-1.04217,-7.53149,-4.03198,-0.439697
1006,949.412,-0.286007,-0.354473,10.3179,0.316502,-1.07032,-5.06396,-4.0332,-0.443359
1007,949.921,-0.292401,-0.346498,10.2984,0.231386,-1.07014,-6.96875,-4.0293,-0.442383
1008,950.43,-0.260514,-0.358579,10.2888,0.224086,-1.11591,-2.50781,-4.03101,-0.440918
1009,950.938,-0.281872,-0.344853,10.2974,0.221627,-1.08184,6.88159,-4.03027,-0.443848
1010,951.447,-0.286386,-0.323459,10.2899,0.178134,-1.03156,-0.974365,-4.03174,-0.439697
1011,951.955,-0.272802,-0.352592,10.3026,0.248138,-1.12116,-1.90771,-4.04004,-0.443359
1012,952.464,-0.271486,-0.357778,10.3067,0.269167,-1.19636,-7.07446,-4.02881,-0.440674
1013,952.973,-0.275535,-0.339095,10.3327,0.264608,-1.08584,-5.01245,-4.03296,-0.443115
1014,953.481,-0.28419,-0.348379,10.3071,0.306077,-1.13302,0.220215,-4.03076,-0.443848
1015,953.99,-0.273646,-0.359673,10.3045,0.189302,-1.08891,-0.0771484,-4.03589,-0.436768
1016,954.498,-0.287559,-0.342292,10.2709,0.232539,-1.19255,-6.13013,-4.02881,-0.442871
1017,955.007,-0.277223,-0.342099,10.2881,0.254208,-1.09142,5.6377,-4.03345,-0.437744
1018,955.516,-0.258361,-0.357091,10.3104,0.230438,-0.996342,3.85181,-4.03198,-0.439453
1019,956.024,-0.267624,-0.349524,10.2969,0.151905,-1.08077,-1.81079,-4.03418,-0.440918
1020,956.533,-0.272344,-0.341262,10.2883,0.25408,-1.10569,-2.82251,-4.03076,-0.439209
1021,957.042,-0.27007,-0.355003,10.3131,0.227723,-1.13251,5.30811,-4.03052,-0.443359
1022,957.55,-0.275363,-0.348451,10.3103,0.225623,-1.06084,1.78833,-4.02661,-0.441162
1023,958.059,-0.278768,-0.342471,10.2737,0.295832,-1.0759,-6.86475,-4.02856,-0.442383
1024,958.567,-0.296629,-0.348136,10.2976,0.357126,-1.13714,-6.75977,-4.02881,-0.440186
1025,959.076,-0.29032,-0.339524,10.2984,0.244808,-1.10264,-1.76147,-4.03198,-0.44165
1026,959.585,-0.278925,-0.354709,10.2865,0.214891,-1.01545,7.52539,-4.03296,-0.443848
1027,960.093,-0.283188,-0.366154,10.2974,0.241914,-1.06079,-5.90186,-4.03467,-0.439697
1028,960.602,-0.278453,-0.358157,10.2891,0.357126,-1.04401,-5.06274,-4.03418,-0.442871
1029,961.11,-0.282101,-0.341348,10.3059,0.356256,-1.09847,-3.76758,-4.03027,-0.442139
1030,961.619,-0.275663,-0.338058,10.3144,0.264275,-1.07057,7.19678,-4.03052,-0.443359
1031,962.128,-0.27208,-0.332307,10.2971,0.281821,-1.13876,-4.29248,-4.03027,-0.442871
1032,962.636,-0.278181,-0.336405,10.3135,0.226315,-1.14672,-1.23511,-4.03296,-0.440186
1033,963.145,-0.275685,-0.336784,10.2838,0.304489,-1.09849,-5.76001,-4.03125,-0.446289
1034,963.653,-0.292244,-0.356247,10.2692,0.204158,-1.07718,0.130371,-4.03369,-0.440674
1035,964.162,-0.278997,-0.338308,10.3092,0.235894,-1.03179,5.69116,-4.03418,-0.439453
1036,964.671,-0.268439,-0.338838,10.2949,0.286636,-1.05579,6.22339,-4.04004,-0.441162
1037,965.179,-0.287215,-0.356226,10.3029,0.220808,-1.06786,-6.33887,-4.02979,-0.445068
1038,965.688,-0.322271,-0.353036,10.2771,0.274188,-1.04086,-5.55225,-4.02954,-0.438965
1039,966.196,-0.284905,-0.357177,10.3181,0.181182,-1.09913,-3.13916,-4.02954,-0.437744
1040,966.705,-0.284683,-0.361211,10.3056,0.203492,-1.06358,3.42017,-4.03076,-0.441895
1041,967.214,-0.284705,-0.360181,10.2743,0.272369,-1.1311,3.15723,-4.03052,-0.443604
1042,967.722,-0.278138,-0.341799,10.2968,0.202288,-1.11655,-4.71118,-4.03076,-0.441406
1043,968.231,-0.271536,-0.34697,10.3428,0.21612,-1.09547,-0.202881,-4.02856,-0.44043
1044,968.739,-0.290291,-0.350525,10.3185,0.175291,-1.11596,-3.85693,-4.03345,-0.44043
1045,969.248,-0.267917,-0.338401,10.296,0.359432,-1.07659,7.16113,-4.03516,-0.442383
1046,969.757,-0.269662,-0.35109,10.3084,0.293142,-1.22982,-5.75977,-4.03125,-0.442627
1047,970.265,-0.281436,-0.348866,10.318,0.254823,-1.09275,0.741211,-4.02808,-0.441406
1048,970.774,-0.293696,-0.353086,10.2983,0.24363,-1.09368,5.83325,-4.03076,-0.440674
1049,971.282,-0.268596,-0.364359,10.2822,0.354053,-1.08668,0.00708008,-4.02832,-0.445557
1050,971.791,-0.28474,-0.352392,10.331,0.282666,-1.04035,0.0236816,-4.03271,-0.440918
1051,972.3,-0.285835,-0.36237,10.306,0.289761,-1.13471,5.30859,-4.03076,-0.440674
1052,972.808,-0.284318,-0.352556,10.313,0.238123,-1.1103,2.47656,-4.03125,-0.442383
1053,973.317,-0.275406,-0.341634,10.3207,0.232462,-1.01338,-2.49634,-4.03149,-0.438232
1054,973.826,-0.286972,-0.353243,10.2993,0.193554,-0.964555,3.74927,-4.03345,-0.441406
1055,974.334,-0.27959,-0.3634,10.2915,0.347521,-1.05738,-0.51709,-4.02881,-0.442383
1056,974.843,-0.279655,-0.349874,10.3042,0.162407,-1.00982,-4.29272,-4.03003,-0.439209
1057,975.351,-0.282029,-0.361426,10.3037,0.275904,-1.09826,1.59937,-4.03418,-0.444824
1058,975.86,-0.288281,-0.34971,10.2896,0.305078,-1.08889,5.67627,-4.03101,-0.440674
1059,976.369,-0.263718,-0.346841,10.3155,0.29806,-1.08796,-6.89746,-4.0354,-0.440918
1060,976.877,-0.268861,-0.344523,10.2887,0.207078,-1.04263,-6.32202,-4.03418,-0.442139
1061,977.386,-0.285985,-0.34888,10.2958,0.339632,-1.11015,-7.38794,-4.02979,-0.443359
1062,977.894,-0.280055,-0.338759,10.2853,0.277415,-1.0956,1.2666,-4.02905,-0.441895
1063,978.403,-0.256193,-0.356748,10.2994,0.246524,-1.03238,-1.93042,-4.03125,-0.440186
1064,978.912,-0.294025,-0.344116,10.2998,0.263967,-1.09219,-7.17651,-4.03101,-0.442871
1065,979.42,-0.284311,-0.34237,10.304,0.202314,-0.970959,2.73608,-4.0293,-0.437744
1066,979.929,-0.261415,-0.344224,10.3062,0.25449,-1.20858,3.36743,-4.03076,-0.442383
1067,980.437,-0.291285,-0.329016,10.2884,0.244449,-1.04744,-2.76953,-4.03125,-0.442383
1068,980.946,-0.280828,-0.340339,10.2858,0.281641,-1.19788,-6.69336,-4.03149,-0.441162
1069,981.455,-0.289905,-0.325175,10.2794,0.162202,-1.17603,-5.33984,-4.03125,-0.444824
1070,981.963,-0.25605,-0.334324,10.2932,0.276365,-1.0343,-2.17871,-4.03345,-0.439697
1071,982.472,-0.274426,-0.353622,10.3014,0.375671,-1.02641,2.07764,-4.03882,-0.447266
1072,982.98,-0.272495,-0.341885,10.3026,0.288429,-1.00746,7.08984,-4.02905,-0.441162
1073,983.489,-0.269834,-0.361741,10.3017,0.25554,-1.09857,3.80176,-4.03369,-0.44165
1074,983.998,-0.286636,-0.388207,10.3119,0.23113,-1.10705,-7.39087,-4.02759,-0.442871
1075,984.506,-0.286007,-0.360338,10.3088,0.225418,-1.11074,-4.92188,-4.03027,-0.440186
1076,985.015,-0.286407,-0.35021,10.2734,0.207334,-1.07306,3.95776,-4.03247,-0.444336
1077,985.523,-0.28881,-0.335154,10.2956,0.236099,-1.07695,1.65161,-4.03394,-0.437256
1078,986.032,-0.28243,-0.348823,10.2993,0.282589,-1.04032,7.42188,-4.03394,-0.44043
1079,986.541,-0.281722,-0.355739,10.3092,0.209512,-1.11066,3.47144,-4.02979,-0.439453
1080,987.049,-0.289247,-0.348365,10.2844,0.191633,-1.06284,6.26636,-4.03247,-0.440674
1081,987.558,-0.283446,-0.354667,10.2916,0.252006,-1.11496,7.19702,-4.03076,-0.442871
1082,988.066,-0.276371,-0.351591,10.2924,0.20549,-1.09099,-0.567627,-4.03027,-0.438721
1083,988.575,-0.292508,-0.341405,10.2857,0.371906,-0.989375,-1.38721,-4.03711,-0.443848
1084,989.084,-0.301213,-0.33393,10.3298,0.311456,-1.04657,-5.34204,-4.02979,-0.44165
1085,989.592,-0.275678,-0.345425,10.2949,0.133079,-1.08976,1.00708,-4.03076,-0.44458
1086,990.101,-0.272473,-0.366705,10.3163,0.274751,-1.09649,-2.34985,-4.03125,-0.443359
1087,990.609,-0.279476,-0.368264,10.2975,0.324494,-1.10963,-7.4397,-4.03027,-0.442627
1088,991.118,-0.289883,-0.356655,10.3027,0.304105,-1.09214,-1.81348,-4.03223,-0.446289
1089,991.627,-0.288267,-0.351147,10.2858,0.254618,-1.04852,-7.28149,-4.03125,-0.437744
1090,992.135,-0.293681,-0.353229,10.3076,0.268911,-1.02775,6.35767,-4.03101,-0.441895
1091,992.644,-0.283303,-0.33745,10.2756,0.169272,-1.11517,-2.92773,-4.03076,-0.441895
1092,993.153,-0.268067,-0.330533,10.3046,0.0933511,-0.984534,6.98657,-4.03027,-0.439697
1093,993.661,-0.280213,-0.338215,10.3055,0.182975,-1.06389,-1.3938,-4.03223,-0.441895
1094,994.17,-0.262724,-0.351441,10.3297,0.277799,-1.1061,0.483154,-4.03125,-0.440186
1095,994.678,-0.263196,-0.33903,10.3071,0.201597,-1.16465,1.85962,-4.03247,-0.443848
1096,995.187,-0.287838,-0.328301,10.3055,0.31266,-1.1259,-1.25049,-4.02979,-0.439697
1097,995.696,-0.285592,-0.344831,10.2934,0.29099,-0.955103,-5.81274,-4.03101,-0.443604
1098,996.204,-0.273203,-0.357878,10.2793,0.181362,-1.02826,7.93164,-4.03101,-0.438965
1099,996.713,-0.290148,-0.348723,10.3099,0.181336,-1.16097,2.63208,-4.03003,-0.437744
1100,997.221,-0.299883,-0.326048,10.3182,0.18067,-1.1188,-0.0761719,-4.03687,-0.445801
1101,997.73,-0.277251,-0.34918,10.288,0.392116,-1.06391,3.12354,-4.03638,-0.439209
1102,998.239,-0.281858,-0.352121,10.334,0.361763,-1.07757,-5.6875,-4.0376,-0.443848
1103,998.747,-0.279261,-0.354373,10.295,0.171423,-1.05741,-6.65234,-4.03076,-0.442383
1104,999.256,-0.291679,-0.340132,10.2818,0.137254,-1.08072,0.0610352,-4.02954,-0.442627
1105,999.764,-0.265306,-0.344982,10.2891,0.2643,-1.0299,2.52832,-4.03101,-0.442871
1106,1000.27,-0.262388,-0.355017,10.3081,0.189533,-1.02436,2.94849,-4.03101,-0.440674
1107,1000.78,-0.277759,-0.346541,10.305,0.147986,-1.05187,3.2085,-4.02954,-0.443359
1108,1001.29,-0.279855,-0.362499,10.2805,0.318218,-1.16996,3.10083,-4.02734,-0.442139
1109,1001.8,-0.29871,-0.338923,10.3015,0.196602,-1.16148,-4.60693,-4.03027,-0.442139
1110,1002.31,-0.278396,-0.346419,10.3136,0.213379,-1.07027,6.82715,-4.02881,-0.443848
1111,1002.82,-0.270807,-0.333944,10.3157,0.17652,-1.0487,6.46289,-4.03101,-0.439697
1112,1003.32,-0.274662,-0.344438,10.2968,0.262738,-1.1292,5.4834,-4.03564,-0.442383
1113,1003.83,-0.273632,-0.334209,10.3225,0.275289,-1.10336,1.68921,-4.03101,-0.442627
1114,1004.34,-0.286693,-0.352864,10.3281,0.235587,-1.08146,3.32764,-4.03198,-0.441895
1115,1004.85,-0.278553,-0.332128,10.2886,0.256155,-1.03784,7.21191,-4.03394,-0.439453
1116,1005.36,-0.279898,-0.349002,10.2883,0.207078,-0.964222,-7.64966,-4.03027,-0.439209
1117,1005.87,-0.281457,-0.338301,10.2808,0.287481,-1.05213,0.811035,-4.03296,-0.442871
1118,1006.38,-0.289826,-0.346748,10.2906,0.192196,-1.02037,-6.16602,-4.03296,-0.438721
1119,1006.88,-0.277144,-0.355468,10.3022,0.24094,-1.06537,5.93774,-4.03052,-0.441406
1120,1007.39,-0.260642,-0.357313,10.2682,0.200393,-1.04416,-2.07324,-4.03394,-0.439209
1121,1007.9,-0.272252,-0.361684,10.3155,0.130978,-1.17057,6.68677,-4.03345,-0.444336
1122,1008.41,-0.281421,-0.344617,10.3221,0.270089,-1.07206,-7.89209,-4.03711,-0.442871
1123,1008.92,-0.291207,-0.352235,10.3041,0.224983,-1.10748,5.30908,-4.03125,-0.442139
1124,1009.43,-0.271737,-0.373514,10.2893,0.415706,-1.06814,-3.01831,-4.03296,-0.441406
1125,1009.94,-0.283646,-0.329911,10.3153,0.27931,-1.19823,-5.91919,-4.02979,-0.437256
1126,1010.45,-0.278746,-0.342736,10.2895,0.288224,-1.11383,-1.30371,-4.02905,-0.443359
1127,1010.95,-0.278782,-0.362435,10.3134,0.216069,-1.06678,-4.38428,-4.03198,-0.4375
1128,1011.46,-0.284469,-0.363958,10.2925,0.30577,-1.05367,7.05518,-4.03418,-0.442627
1129,1011.97,-0.285384,-0.352371,10.3091,0.173575,-1.07698,-1.14575,-4.0293,-0.445801
1130,1012.48,-0.271794,-0.345139,10.288,0.188406,-1.09731,0.914062,-4.03149,-0.442627
1131,1012.99,-0.274054,-0.345039,10.3074,0.214148,-1.11839,2.05347,-4.02881,-0.444336
1132,1013.5,-0.283281,-0.342793,10.3112,0.22278,-1.06156,-0.674316,-4.02905,-0.44458
1133,1014.01,-0.293524,-0.337049,10.313,0.212252,-1.06781,6.37378,-4.03491,-0.44165
1134,1014.51,-0.277087,-0.345668,10.3035,0.191863,-1.08438,-6.86206,-4.03076,-0.439453
1135,1015.02,-0.280735,-0.335719,10.2834,0.294218,-1.11025,7.08984,-4.02881,-0.440186
1136,1015.53,-0.300162,-0.349638,10.2992,0.24176,-1.03205,-7.33374,-4.03125,-0.441406
1137,1016.04,-0.279125,-0.356984,10.3056,0.255745,-1.16299,4.5188,-4.02881,-0.442139
1138,1016.55,-0.276214,-0.358472,10.3,0.29076,-1.10564,-4.92041,-4.03125,-0.443848
1139,1017.06,-0.281464,-0.344545,10.2949,0.23049,-1.05746,-1.81348,-4.03223,-0.442383
1140,1017.57,-0.274111,-0.338086,10.2806,0.30431,-1.08845,0.0791016,-4.03442,-0.443115
1141,1018.07,-0.27183,-0.334989,10.3064,0.267041,-1.09473,-6.91455,-4.03076,-0.442871
1142,1018.58,-0.284154,-0.357885,10.2917,0.290965,-1.08446,-0.517578,-4.02856,-0.438721
1143,1019.09,-0.28469,-0.356305,10.2809,0.247651,-1.03428,-7.44019,-4.02979,-0.444336
1144,1019.6,-0.271136,-0.356262,10.2639,0.225649,-0.961277,4.88843,-4.03052,-0.439209
1145,1020.11,-0.279082,-0.344288,10.2743,0.293219,-1.08123,-3.81982,-4.03052,-0.445312
1146,1020.62,-0.285599,-0.333716,10.2901,0.293782,-1.08069,-6.38916,-4.03125,-0.447266
1147,1021.13,-0.269126,-0.336455,10.2859,0.244808,-1.04296,-1.51294,-4.02979,-0.439697
1148,1021.63,-0.285706,-0.355818,10.2922,0.304489,-1.01079,-2.77026,-4.03076,-0.439453
1149,1022.14,-0.279555,-0.345525,10.2853,0.21279,-1.05141,-2.19312,-4.03101,-0.441162
1150,1022.65,-0.28778,-0.34647,10.302,0.152033,-1.14263,-3.08521,-4.03076,-0.439941
1151,1023.16,-0.280663,-0.342149,10.2841,0.141864,-1.05333,7.1582,-4.03271,-0.443848
1152,1023.67,-0.284433,-0.325447,10.3103,0.270448,-1.02211,-1.65308,-4.03442,-0.438721
1153,1024.35,-0.297179,-0.352857,10.2698,0.281206,-1.16012,7.66846,-4.03027,-0.443359
1154,1025.37,-0.286235,-0.325826,10.3021,0.198369,-1.19652,2.37109,-4.03076,-0.440674
1155,1026.39,-0.274197,-0.347585,10.3165,0.282589,-1.06816,4.06201,-4.03198,-0.445312
1156,1027.41,-0.262066,-0.347657,10.3016,0.328054,-1.15051,3.21069,-4.03125,-0.443115
1157,1028.42,-0.28891,-0.361298,10.3077,0.312378,-1.07096,6.19775,-4.02881,-0.444092
1158,1029.44,-0.281936,-0.361877,10.305,0.304131,-1.04355,3.52539,-4.03125,-0.439453
1159,1030.46,-0.274641,-0.356641,10.3093,0.229593,-1.20817,-4.61108,-4.0271,-0.439697
1160,1031.48,-0.278961,-0.333873,10.2868,0.266119,-1.14012,-3.24316,-4.03027,-0.443848
1161,1032.49,-0.279841,-0.348508,10.2994,0.334022,-1.09998,-3.71606,-4.02979,-0.442139
1162,1033.51,-0.271221,-0.350432,10.3039,0.230387,-1.1445,-1.75732,-4.03491,-0.441895
1163,1034.53,-0.270127,-0.349002,10.2817,0.257794,-1.14099,-5.85083,-4.03345,-0.442383
1164,1035.54,-0.268124,-0.331699,10.2882,0.285663,-1.01525,-3.71631,-4.0293,-0.438477
1165,1036.56,-0.283675,-0.339846,10.29,0.245039,-1.04739,7.77393,-4.03076,-0.443359
1166,1037.58,-0.294647,-0.34521,10.2982,0.254695,-1.08038,-4.08325,-4.02979,-0.444092
1167,1038.6,-0.281579,-0.350718,10.2835,0.271063,-1.12759,1.53174,-4.03101,-0.441895
1168,1039.61,-0.274862,-0.333466,10.3245,0.320242,-1.14416,-7.53027,-4.03296,-0.440186
1169,1040.63,-0.280163,-0.346505,10.2857,0.287251,-1.05705,5.30859,-4.03076,-0.443115
1170,1041.65,-0.282144,-0.324138,10.2963,0.227339,-1.07587,2.73706,-4.03003,-0.443848
1171,1042.66,-0.281321,-0.326306,10.2798,0.198318,-1.13991,2.94604,-4.02954,-0.44165
1172,1043.68,-0.284039,-0.315526,10.2857,0.222652,-1.16281,4.15234,-4.0293,-0.446289
1173,1044.7,-0.272187,-0.352249,10.2954,0.255797,-1.10461,-7.54419,-4.03052,-0.439697
1174,1045.72,-0.266551,-0.330761,10.2954,0.25134,-1.10277,4.94189,-4.03125,-0.445801
1175,1046.73,-0.276679,-0.358494,10.2974,0.249495,-0.979693,3.78662,-4.03027,-0.443359
1176,1047.75,-0.273045,-0.343043,10.2924,0.320524,-1.177,-0.882324,-4.03027,-0.44165
1177,1048.77,-0.286121,-0.329217,10.2664,0.337736,-1.04235,-3.28271,-4.03174,-0.443359
1178,1049.79,-0.267781,-0.343157,10.3109,0.20695,-1.18947,5.30591,-4.02881,-0.436768
1179,1050.8,-0.2761,-0.339116,10.3107,0.317296,-1.12213,0.919434,-4.0354,-0.445312
1180,1051.82,-0.269526,-0.337135,10.2688,0.185255,-1.12106,5.42773,-4.03345,-0.440674
1181,1052.84,-0.296071,-0.339273,10.2965,0.240684,-1.11161,-0.987793,-4.02979,-0.441162
1182,1053.85,-0.298238,-0.339674,10.2955,0.302414,-1.0811,-3.08545,-4.03027,-0.444336
1183,1054.87,-0.264762,-0.369495,10.2766,0.264838,-1.04048,-3.3877,-4.03174,-0.439209
1184,1055.89,-0.283145,-0.346798,10.2716,0.18628,-1.13422,-0.672607,-4.03027,-0.442871
1185,1056.91,-0.284125,-0.3534,10.3098,0.257436,-1.01911,5.64355,-4.03784,-0.437744
1186,1057.92,-0.263046,-0.350525,10.2763,0.234229,-1.09534,-3.24316,-4.03027,-0.446777
1187,1058.94,-0.269197,-0.34295,10.3203,0.18149,-1.12208,-6.27222,-4.03198,-0.439941
1188,1059.96,-0.297988,-0.340969,10.3109,0.216965,-1.00923,-5.91846,-4.03027,-0.439209
1189,1060.97,-0.27924,-0.354702,10.2993,0.319038,-1.11235,5.22021,-4.03491,-0.442871
1190,1061.99,-0.273596,-0.343987,10.3092,0.350928,-1.12372,-3.75366,-4.03247,-0.438232
1191,1063.01,-0.253511,-0.34785,10.3024,0.335739,-1.02787,6.35547,-4.02905,-0.443359
1192,1064.03,-0.288374,-0.358751,10.3286,0.303618,-1.10876,0.167725,-4.03076,-0.442627
1193,1065.04,-0.296864,-0.341799,10.3202,0.39273,-1.15536,0.849854,-4.03101,-0.443848
1194,1066.06,-0.272459,-0.350747,10.3017,0.28866,-1.10551,-0.567383,-4.03052,-0.441406
1195,1067.08,-0.264977,-0.350632,10.3213,0.153314,-1.1667,1.49487,-4.03467,-0.440186
1196,1068.1,-0.276944,-0.353887,10.2868,0.201981,-0.977465,5.79614,-4.03418,-0.443848
1197,1069.11,-0.267101,-0.349788,10.3037,0.171782,-1.14923,3.73315,-4.02979,-0.439209
1198,1070.13,-0.292251,-0.356219,10.3054,0.248112,-1.04803,0.216064,-4.02783,-0.443848
1199,1071.15,-0.274362,-0.351941,10.2761,0.186177,-1.07928,-1.61572,-4.03125,-0.443359
1200,1072.16,-0.275563,-0.352092,10.2804,0.140942,-1.06481,-2.35229,-4.0293,-0.441162
1201,1073.18,-0.274669,-0.348079,10.2897,0.25344,-1.07349,0.0268555,-4.03516,-0.445312
1202,1074.2,-0.282108,-0.358357,10.3014,0.17962,-1.12925,-1.04126,-4.0293,-0.439209
1203,1075.22,-0.279419,-0.332471,10.2811,0.286559,-1.0738,-1.93066,-4.03125,-0.442383
1204,1076.23,-0.274319,-0.341849,10.3091,0.242195,-1.01169,-1.82861,-4.02881,-0.443115
1205,1077.25,-0.27502,-0.344474,10.2855,0.286534,-1.04975,-3.8728,-4.03027,-0.437988
1206,1078.27,-0.262102,-0.341991,10.287,0.235254,-0.976543,-0.35791,-4.03027,-0.441895
1207,1079.28,-0.297172,-0.360267,10.3249,0.259075,-1.0635,5.20312,-4.03052,-0.437744
1208,1080.3,-0.281457,-0.344653,10.314,0.336507,-1.11104,-7.23218,-4.02856,-0.441406
1209,1081.32,-0.270063,-0.363099,10.3078,0.385097,-1.03628,1.78955,-4.02759,-0.439209
1210,1082.34,-0.290656,-0.340711,10.3013,0.170809,-1.17651,-4.87036,-4.0293,-0.441895
1211,1083.35,-0.266923,-0.336534,10.3007,0.275366,-1.17641,-1.44385,-4.03394,-0.441406
1212,1084.37,-0.257266,-0.349381,10.3095,0.288685,-1.21055,-4.45068,-4.02954,-0.437744
1213,1085.39,-0.261816,-0.338279,10.3343,0.254311,-1.00774,0.324707,-4.03052,-0.44043
1214,1086.4,-0.298409,-0.341019,10.3399,0.224522,-1.05905,-0.830811,-4.02979,-0.440674
1215,1087.42,-0.27635,-0.343794,10.2971,0.294397,-1.04247,7.56348,-4.03027,-0.439941
1216,1088.44,-0.303481,-0.325383,10.2641,0.266785,-1.08684,2.54102,-4.03223,-0.439697
1217,1089.46,-0.291135,-0.342213,10.3118,0.222985,-1.07887,6.11523,-4.0376,-0.441895
1218,1090.47,-0.295076,-0.348959,10.2965,0.166019,-1.1488,7.2478,-4.02954,-0.441406
1219,1091.49,-0.277251,-0.343143,10.3249,0.249086,-1.17636,-6.32471,-4.03174,-0.437744
1220,1092.51,-0.287144,-0.334424,10.3024,0.237892,-1.03087,6.41016,-4.03052,-0.440918
1221,1093.53,-0.266365,-0.3433,10.3144,0.240915,-1.02687,1.89917,-4.03101,-0.439697
1222,1094.54,-0.278246,-0.331076,10.2957,0.279541,-1.05326,4.99414,-4.03101,-0.442383
1223,1095.56,-0.276,-0.343866,10.2871,0.227903,-1.07549,-4.48853,-4.03247,-0.441406
1224,1096.58,-0.276329,-0.335211,10.3318,0.192171,-1.11929,-0.76123,-4.03467,-0.438721
1225,1097.59,-0.285777,-0.351241,10.2902,0.284843,-1.12121,-6.8103,-4.03027,-0.444336
1226,1098.61,-0.286092,-0.328065,10.3191,0.182079,-1.10615,5.83105,-4.02954,-0.440674
1227,1099.63,-0.290577,-0.327715,10.2979,0.1965,-1.08551,-0.989014,-4.02905,-0.443359
1228,1100.65,-0.291843,-0.354924,10.2685,0.189891,-1.1259,5.9353,-4.02881,-0.438232
1229,1101.66,-0.281157,-0.332042,10.286,0.165916,-1.14908,-5.13257,-4.02954,-0.440918
1230,1102.68,-0.275713,-0.339896,10.3064,0.24135,-1.06793,-3.02002,-4.03198,-0.441406
1231,1103.7,-0.273911,-0.346362,10.3293,0.387889,-1.11038,-2.35132,-4.03027,-0.442139
1232,1104.71,-0.279841,-0.345904,10.3103,0.203082,-1.1833,1.54614,-4.03345,-0.443848
1233,1105.73,-0.270678,-0.322164,10.3018,0.233948,-1.09465,4.8877,-4.03003,-0.438232
1234,1106.75,-0.280191,-0.342257,10.3128,0.262072,-1.14283,5.46606,-4.03076,-0.444336
1235,1107.77,-0.275506,-0.347764,10.2846,0.318808,-1.09485,-3.8562,-4.03442,-0.441406
1236,1108.78,-0.279018,-0.356705,10.3162,0.315862,-1.10546,7.35376,-4.03003,-0.439209
1237,1109.8,-0.279941,-0.350039,10.2902,0.258153,-1.07114,-6.58569,-4.03296,-0.444824
1238,1110.82,-0.291314,-0.356255,10.2764,0.30349,-0.930002,4.06201,-4.03198,-0.440674
1239,1111.84,-0.296106,-0.363393,10.3136,0.15941,-1.07339,1.21582,-4.03003,-0.442383
1240,1112.85,-0.296836,-0.358264,10.3063,0.370215,-1.14798,3.36719,-4.03076,-0.443604
1241,1113.87,-0.296442,-0.330898,10.2769,0.137689,-1.11576,3.01196,-4.03149,-0.444092
1242,1114.89,-0.293059,-0.333723,10.2918,0.251084,-1.04959,-7.84253,-4.03491,-0.445312
1243,1115.9,-0.287895,-0.336842,10.2783,0.255925,-1.13043,-4.90527,-4.03442,-0.439209
1244,1116.92,-0.295412,-0.33961,10.2953,0.170757,-1.05687,4.10229,-4.03101,-0.443848
1245,1117.94,-0.290792,-0.351248,10.318,0.213892,-1.0363,-3.13696,-4.03125,-0.439697
1246,1118.96,-0.282208,-0.364995,10.3026,0.238661,-1.10262,-5.32617,-4.03345,-0.444092
1247,1119.97,-0.273661,-0.358557,10.2767,0.286252,-1.11522,-3.75366,-4.03247,-0.44043
1248,1120.99,-0.278975,-0.351798,10.2851,0.289889,-1.06133,7.87549,-4.02832,-0.443115
1249,1122.01,-0.287194,-0.343257,10.309,0.350569,-0.993294,0.705811,-4.03296,-0.443848
1250,1123.02,-0.271486,-0.34481,10.2747,0.331871,-1.12541,-2.6687,-4.02832,-0.438232
1251,1124.04,-0.286293,-0.333823,10.296,0.497467,-1.04975,-0.621338,-4.02954,-0.448242
1252,1125.06,-0.286414,-0.339717,10.2725,0.357306,-0.992091,3.73193,-4.02856,-0.443359
1253,1126.08,-0.278003,-0.351948,10.3038,0.335534,-1.04765,4.52051,-4.03003,-0.442871
1254,1127.09,-0.305498,-0.336713,10.2955,0.350364,-1.09421,0.548828,-4.0332,-0.442871
1255,1128.11,-0.28891,-0.328466,10.2735,0.292322,-1.02726,-4.2793,-4.03198,-0.44165
1256,1129.13,-0.286536,-0.352678,10.3198,0.243681,-1.09347,3.68262,-4.03101,-0.440918
1257,1130.15,-0.280112,-0.339267,10.2901,0.263583,-1.07836,0.0600586,-4.02881,-0.440186
1258,1131.16,-0.274476,-0.370939,10.3176,0.258512,-1.10825,-5.32837,-4.03198,-0.441406
1259,1132.18,-0.277266,-0.364723,10.292,0.295294,-1.11268,3.57642,-4.03003,-0.440918
1260,1133.2,-0.27836,-0.360632,10.3092,0.267195,-1.09583,7.35278,-4.02954,-0.439209
1261,1134.21,-0.266672,-0.335576,10.3244,0.224906,-1.07677,7.35229,-4.0293,-0.443359
1262,1135.23,-0.286772,-0.327321,10.2908,0.25759,-1.08266,-2.7207,-4.02856,-0.44165
1263,1136.25,-0.279168,-0.336742,10.3015,0.278696,-1.01957,-6.74121,-4.03418,-0.444336
1264,1137.27,-0.278682,-0.340018,10.3114,0.22155,-1.11066,-0.566895,-4.03101,-0.440674
1265,1138.28,-0.278038,-0.343916,10.3026,0.337993,-1.02454,-4.33057,-4.03271,-0.442627
1266,1139.3,-0.280785,-0.363507,10.2824,0.205234,-1.08894,3.00073,-4.03101,-0.443848
1267,1140.32,-0.303345,-0.349052,10.2881,0.20882,-1.11273,-4.54053,-4.03271,-0.437744
1268,1141.33,-0.271379,-0.358751,10.324,0.344294,-1.11045,0.913818,-4.03149,-0.443848
1269,1142.35,-0.293274,-0.358622,10.2746,0.290196,-1.04434,-1.39429,-4.03174,-0.438721
1270,1143.37,-0.2817,-0.340633,10.3014,0.287097,-1.03056,-1.45898,-4.03052,-0.444336
1271,1144.39,-0.292844,-0.348937,10.2784,0.349058,-0.991015,6.09595,-4.03125,-0.441406
1272,1145.4,-0.293345,-0.336334,10.3248,0.292374,-1.20205,-2.82275,-4.03076,-0.440674
1273,1146.42,-0.248511,-0.338795,10.3278,0.431638,-1.08581,-7.68896,-4.03174,-0.441895
1274,1147.44,-0.278646,-0.354752,10.2885,0.223241,-1.12887,6.72241,-4.02881,-0.437256
1275,1148.45,-0.292752,-0.351934,10.2877,0.371086,-1.0977,1.11035,-4.02979,-0.443848
1276,1149.47,-0.294168,-0.342099,10.3084,0.366885,-1.09076,3.57739,-4.03076,-0.442627
1277,1150.49,-0.289282,-0.324896,10.2842,0.306513,-1.02434,-2.75659,-4.03271,-0.443359
1278,1151.51,-0.282816,-0.345525,10.2978,0.187688,-1.04255,7.52954,-4.03589,-0.444824
1279,1152.52,-0.271794,-0.364502,10.2805,0.263173,-1.06261,-0.498535,-4.03442,-0.438232
1280,1153.54,-0.285234,-0.346305,10.2879,0.270832,-1.09296,2.65015,-4.03516,-0.445312
1281,1154.56,-0.281729,-0.355475,10.3332,0.240992,-1.1186,-4.45068,-4.02954,-0.440186
1282,1155.58,-0.286371,-0.340626,10.298,0.255131,-1.05894,-3.76807,-4.03003,-0.442871
1283,1156.59,-0.298123,-0.339123,10.2988,0.159231,-1.03394,-6.91406,-4.03125,-0.44043
1284,1157.61,-0.265835,-0.329231,10.2995,0.253671,-1.10999,4.15405,-4.03052,-0.438965
1285,1158.63,-0.279712,-0.341892,10.2774,0.186587,-1.07011,-3.45264,-4.03052,-0.444824
1286,1159.64,-0.264941,-0.338265,10.3064,0.24509,-1.09657,-3.22949,-4.03247,-0.440674
1287,1160.66,-0.275334,-0.346713,10.2776,0.131081,-1.15807,0.917236,-4.03394,-0.443359
1288,1161.68,-0.274862,-0.354975,10.3178,0.193989,-1.08241,2.52832,-4.03076,-0.442139
1289,1162.7,-0.291664,-0.339389,10.2625,0.198293,-1.17626,-4.71094,-4.03101,-0.442383
1290,1163.71,-0.287609,-0.339488,10.2996,0.121706,-1.10671,5.37354,-4.03223,-0.4375
1291,1164.73,-0.302816,-0.344345,10.3052,0.28428,-1.14081,-1.30225,-4.03003,-0.438232
1292,1165.75,-0.266193,-0.365117,10.3072,0.212534,-1.08056,-6.96655,-4.03101,-0.441406
1293,1166.76,-0.271658,-0.350281,10.2778,0.199778,-1.05062,-1.93408,-4.02856,-0.438965
1294,1167.78,-0.27027,-0.347392,10.3058,0.217862,-1.08845,0.534912,-4.03076,-0.443359
1295,1168.8,-0.292287,-0.339367,10.282,0.120348,-1.21081,6.89648,-4.03345,-0.438965
1296,1169.82,-0.270478,-0.34692,10.3328,0.226878,-1.0414,5.09302,-4.02637,-0.437744
1297,1170.83,-0.279626,-0.350017,10.2885,0.385763,-1.00871,3.104,-4.02979,-0.443359
1298,1171.85,-0.270356,-0.357492,10.2819,0.321574,-1.12431,1.79199,-4.02954,-0.439209
1299,1172.87,-0.289812,-0.311013,10.3393,0.274649,-1.13205,-5.07983,-4.02979,-0.444336
1300,1173.89,-0.28243,-0.348894,10.2697,0.250161,-1.01691,-1.04053,-4.02979,-0.440674
1301,1174.9,-0.268389,-0.352786,10.2975,0.21092,-1.10974,-6.4812,-4.03296,-0.438477
1302,1175.92,-0.295184,-0.337421,10.3022,0.257052,-1.01799,1.5437,-4.03198,-0.441895
1303,1176.94,-0.287645,-0.356597,10.2331,0.201571,-1.12277,-1.98511,-4.02954,-0.439209
1304,1177.95,-0.279562,-0.355031,10.2992,0.278337,-1.11991,3.53882,-4.03296,-0.441406
1305,1178.97,-0.272073,-0.32858,10.3225,0.222088,-1.03674,-0.041748,-4.03125,-0.436768
1306,1179.99,-0.286443,-0.326391,10.3032,0.14691,-1.03284,6.56714,-4.03052,-0.441895
1307,1181.01,-0.287115,-0.33491,10.2763,0.198984,-1.03515,-2.4043,-4.02979,-0.441406
1308,1182.02,-0.281801,-0.338616,10.3077,0.21653,-1.06758,6.09521,-4.03052,-0.439697
1309,1183.04,-0.268897,-0.343744,10.3021,0.319678,-1.13297,4.22485,-4.03613,-0.440918
1310,1184.06,-0.292466,-0.364966,10.3069,0.257,-0.987198,-2.07202,-4.03491,-0.442139
1311,1185.07,-0.296214,-0.339324,10.3138,0.254593,-1.1292,-5.39453,-4.02979,-0.441406
1312,1186.09,-0.287222,-0.330698,10.293,0.276185,-1.07073,3.11865,-4.03247,-0.441162
1313,1187.11,-0.280728,-0.356026,10.2752,0.294013,-1.10118,-2.77271,-4.02905,-0.442139
1314,1188.13,-0.298016,-0.334825,10.2852,0.222575,-1.16324,3.59204,-4.03369,-0.441895
1315,1189.14,-0.289404,-0.342057,10.3012,0.198754,-1.06212,4.25757,-4.0293,-0.443115
1316,1190.16,-0.278947,-0.349431,10.3,0.307179,-1.11747,5.21631,-4.03247,-0.444824
1317,1191.18,-0.273875,-0.336369,10.3266,0.239096,-1.0674,2.00317,-4.03027,-0.436768
1318,1192.19,-0.259677,-0.345354,10.306,0.255233,-1.01742,-2.35352,-4.02881,-0.442871
1319,1193.21,-0.291292,-0.353823,10.2947,0.264992,-1.04255,-3.65039,-4.03149,-0.443848
1320,1194.23,-0.286586,-0.349359,10.2863,0.322701,-1.05436,1.12646,-4.03345,-0.441162
1321,1195.25,-0.29381,-0.333902,10.2853,0.316195,-1.02887,-6.23657,-4.02783,-0.445801
1322,1196.26,-0.286021,-0.36918,10.2997,0.29181,-1.07936,-6.27246,-4.03247,-0.442627
1323,1197.28,-0.281708,-0.333022,10.2911,0.278696,-1.10689,-0.567871,-4.03027,-0.447754
1324,1198.3,-0.288546,-0.344109,10.2768,0.248368,-1.12621,-2.29858,-4.03052,-0.443604
1325,1199.32,-0.284254,-0.355024,10.3221,0.281718,-1.06258,0.902588,-4.03125,-0.444092
1326,1200.33,-0.307687,-0.348587,10.3176,0.337762,-1.07867,6.40796,-4.0293,-0.444336
1327,1201.35,-0.299368,-0.336684,10.2799,0.261995,-1.15835,3.47168,-4.03003,-0.442627
1328,1202.37,-0.289848,-0.342406,10.275,0.260253,-1.10215,5.74194,-4.03296,-0.444336
1329,1203.38,-0.268274,-0.335676,10.293,0.315734,-0.998725,7.82617,-4.03052,-0.443604
1330,1204.4,-0.284776,-0.344853,10.2806,0.289069,-1.0258,-4.38013,-4.03491,-0.444336
1331,1205.42,-0.272852,-0.362785,10.2854,0.268604,-0.97621,5.95532,-4.0354,-0.442383
1332,1206.44,-0.278153,-0.337643,10.2851,0.291733,-0.987301,2.26367,-4.02905,-0.442627
1333,1207.45,-0.271837,-0.340318,10.3388,0.251032,-1.05625,6.98706,-4.03076,-0.443848
1334,1208.47,-0.275077,-0.336162,10.3114,0.333869,-1.0395,6.9353,-4.03125,-0.443115
1335,1209.49,-0.277924,-0.360868,10.3123,0.192657,-1.0945,7.40527,-4.02954,-0.446289
1336,1210.5,-0.296392,-0.343229,10.2797,0.28077,-1.15192,-4.17383,-4.03247,-0.445068
1337,1211.52,-0.26678,-0.360818,10.3034,0.24322,-1.16906,4.41504,-4.02954,-0.44458
1338,1212.54,-0.279991,-0.374581,10.3095,0.328592,-1.12126,-7.43848,-4.03125,-0.443848
1339,1213.56,-0.279147,-0.340668,10.3092,0.241683,-1.19052,-4.65967,-4.03003,-0.443115
1340,1214.57,-0.27801,-0.322443,10.2875,0.195731,-1.08758,-1.61768,-4.02979,-0.444336
1341,1215.59,-0.281414,-0.349244,10.2924,0.196653,-1.07841,-4.76367,-4.03076,-0.442627
1342,1216.61,-0.290162,-0.348837,10.3059,0.288685,-1.15971,4.83472,-4.02954,-0.438477
1343,1217.63,-0.269834,-0.350682,10.2929,0.183616,-1.04437,5.83105,-4.0293,-0.441406
1344,1218.64,-0.282773,-0.361319,10.278,0.275724,-1.10408,5.46533,-4.03027,-0.442627
1345,1219.66,-0.310755,-0.356905,10.3027,0.286559,-1.01537,6.896,-4.03296,-0.444336
1346,1220.68,-0.270299,-0.338708,10.3215,0.255387,-1.2303,-1.09473,-4.02856,-0.445068
1347,1221.69,-0.262316,-0.35486,10.2915,0.284664,-1.0843,3.15552,-4.02905,-0.444336
1348,1222.71,-0.296814,-0.352149,10.3027,0.333561,-1.07193,-5.23877,-4.02832,-0.44165
1349,1223.73,-0.295184,-0.332786,10.3108,0.339171,-1.0122,-3.34839,-4.02979,-0.443115
1350,1224.75,-0.282201,-0.348608,10.3133,0.189917,-1.01952,-3.22705,-4.03442,-0.446289
1351,1225.76,-0.296349,-0.34456,10.2977,0.222524,-0.99163,2.26587,-4.03052,-0.444092
1352,1226.78,-0.269161,-0.34672,10.2906,0.177315,-1.11366,5.46606,-4.03076,-0.445801
1353,1227.8,-0.281929,-0.340082,10.2914,0.193964,-1.15269,-1.61743,-4.02979,-0.442139
1354,1228.81,-0.274519,-0.335969,10.32,0.248906,-1.14186,3.25903,-4.02808,-0.439453
1355,1229.83,-0.280656,-0.341441,10.3053,0.270781,-1.15659,-5.2373,-4.02979,-0.442871
1356,1230.85,-0.252531,-0.356706,10.2897,0.305642,-1.09793,5.63818,-4.03345,-0.440186
1357,1231.87,-0.268854,-0.355575,10.3122,0.275289,-1.17751,-5.29175,-4.02808,-0.446289
1358,1232.88,-0.28341,-0.352535,10.3268,0.268681,-1.11668,7.1438,-4.03027,-0.44165
1359,1233.9,-0.292673,-0.342006,10.304,0.266222,-1.14739,7.15649,-4.03174,-0.445312
1360,1234.92,-0.29017,-0.347163,10.3025,0.391578,-1.07083,-7.33667,-4.02881,-0.443848
1361,1235.94,-0.276543,-0.362456,10.3162,0.190455,-0.959868,-2.8252,-4.02905,-0.446533
1362,1236.95,-0.278381,-0.354917,10.3333,0.281846,-1.13581,-1.5127,-4.02979,-0.448242
1363,1237.97,-0.267974,-0.342328,10.3062,0.191095,-1.05838,1.0061,-4.03003,-0.44458
1364,1238.99,-0.269877,-0.357392,10.3194,0.145143,-1.07398,4.99121,-4.02881,-0.447754
1365,1240,-0.268546,-0.340819,10.3071,0.159948,-1.05216,-2.6145,-4.02954,-0.447021
1366,1241.02,-0.28366,-0.327328,10.3041,0.188585,-1.16586,2.60156,-4.03833,-0.446289
1367,1242.04,-0.280563,-0.35109,10.3056,0.16525,-1.13366,6.41016,-4.03052,-0.442871
1368,1243.06,-0.283052,-0.348,10.3063,0.303388,-1.10315,7.5791,-4.03369,-0.443604
1369,1244.07,-0.283253,-0.348244,10.2975,0.260458,-1.10572,-0.412354,-4.02881,-0.44873
1370,1245.09,-0.270478,-0.341498,10.3097,0.361532,-1.009,4.88647,-4.02905,-0.445557
1371,1246.11,-0.279683,-0.36139,10.3286,0.192196,-1.23676,-7.49097,-4.03101,-0.447754
1372,1247.12,-0.300462,-0.335061,10.294,0.358868,-1.05559,6.72559,-4.03125,-0.443604
1373,1248.14,-0.279805,-0.34898,10.3061,0.30139,-1.10177,4.57373,-4.03052,-0.447266
1374,1249.16,-0.260013,-0.354702,10.2877,0.313096,-1.15333,-6.65186,-4.03101,-0.44873
1375,1250.18,-0.281257,-0.34858,10.3261,0.252774,-1.15174,-6.5332,-4.0332,-0.447021
1376,1251.19,-0.259255,-0.350038,10.3126,0.270166,-1.10036,-3.61035,-4.03027,-0.445312
1377,1252.21,-0.283846,-0.356247,10.2755,0.172755,-1.17882,-2.82446,-4.02954,-0.446533
1378,1253.23,-0.281429,-0.342121,10.2989,0.3091,-1.04988,-1.75903,-4.03345,-0.446777
1379,1254.24,-0.262395,-0.345375,10.3048,0.292886,-1.08335,0.495361,-4.03247,-0.446777
1380,1255.26,-0.273646,-0.360875,10.3013,0.297599,-0.979411,-5.39575,-4.02881,-0.442139
1381,1256.28,-0.264848,-0.349602,10.3009,0.225854,-1.07785,-5.11499,-4.03442,-0.449219
1382,1257.3,-0.280284,-0.346934,10.312,0.348341,-0.946344,-5.76099,-4.03052,-0.445557
1383,1258.31,-0.286457,-0.345268,10.2798,0.188303,-1.08036,-2.33569,-4.03369,-0.445312
1384,1259.33,-0.279612,-0.349252,10.2903,0.203108,-1.0447,-3.2959,-4.02979,-0.445068
1385,1260.35,-0.274176,-0.349588,10.3065,0.153314,-1.07331,5.30664,-4.0293,-0.445068
1386,1261.37,-0.277201,-0.358207,10.295,0.26576,-1.08095,3.06689,-4.0332,-0.45166
1387,1262.38,-0.290041,-0.339467,10.3231,0.334919,-1.11763,2.43555,-4.03174,-0.447021
1388,1263.4,-0.288281,-0.341427,10.3046,0.227928,-1.11248,6.56812,-4.03101,-0.446777
1389,1264.42,-0.286886,-0.335976,10.2912,0.258614,-1.08297,6.87964,-4.02881,-0.445557
1390,1265.43,-0.279819,-0.373879,10.2892,0.280566,-1.0862,-6.75757,-4.03027,-0.446777
1391,1266.45,-0.279018,-0.350496,10.314,0.287891,-1.08609,-5.55225,-4.02954,-0.446777
1392,1267.47,-0.265807,-0.350783,10.2722,0.188687,-1.04411,-1.40918,-4.02856,-0.447021
1393,1268.49,-0.262223,-0.340254,10.2898,0.226852,-1.05684,2.12256,-4.0332,-0.448242
