timestamp_ms,acc_x,acc_y,acc_z,gyr_x,gyr_y,gyr_z,mag_x,mag_y,mag_z
0,-1.7092e-37,0,0,0,0,0,0,0,0.180664
1,-1.71013e-37,-0.221123,-0.0749833,9.42289,-1.18525,0.175291,-7.65967,-4.05371,0.175537
2,-1.71107e-37,-0.160918,-0.0967565,9.45583,-0.768862,0.183616,-2.15308,-4.05298,0.179688
3,-1.712e-37,-0.190452,-0.0812778,9.36976,-0.82465,0.277056,3.03687,-4.05005,0.176025
4,-1.71294e-37,-0.194508,-0.0696472,9.40271,-0.818016,0.101676,-2.7876,-4.04907,0.178711
5,-1.71387e-37,-0.205608,-0.0780591,9.35874,-0.998366,0.20818,-0.168701,-4.04614,0.17627
6,-1.7148e-37,-0.218706,-0.083209,9.40999,-1.05413,0.247498,4.86816,-4.04639,0.176758
7,-1.71574e-37,-0.211674,-0.112092,9.38429,-0.939376,0.199881,6.50854,-4.05737,0.180664
8,-1.71667e-37,-0.179036,-0.0749403,9.41914,-0.824599,0.103161,4.41699,-4.06226,0.175049
9,-1.71761e-37,-0.197497,-0.0577163,9.36971,-0.990195,0.219604,-5.14575,-4.05078,0.180176
10,-1.71854e-37,-0.192282,-0.0701194,9.39713,-1.12131,0.216248,5.39526,-4.04834,0.176514
11,-1.71947e-37,-0.185252,-0.068002,9.4008,-0.932768,0.195091,5.39526,-4.04834,0.177246
12,-1.72041e-37,-0.203792,-0.0894964,9.41172,-0.901647,0.208205,6.71045,-4.05103,0.179199
13,-1.72134e-37,-0.191238,-0.0721794,9.31653,-0.888404,0.0541357,-0.267822,-4.05054,0.176514
14,-1.72228e-37,-0.178507,-0.0864135,9.40072,-1.20146,0.0261137,7.85327,-4.04272,0.180664
15,-1.72321e-37,-0.189544,-0.0752407,9.38793,-1.18345,0.0425068,-4.68335,-4.0437,0.174072
16,-1.72415e-37,-0.191446,-0.0696472,9.41356,-1.20318,0.0816454,5.97632,-4.05151,0.177734
17,-1.72508e-37,-0.206209,-0.0713782,9.42819,-0.944218,0.104877,-2.73071,-4.05225,0.178711
18,-1.72601e-37,-0.180731,-0.0542114,9.39163,-0.931052,0.0887405,-7.20312,-4.04224,0.177246
19,-1.72695e-37,-0.21196,-0.0666001,9.40072,-0.914889,0.259178,3.24072,-4.04565,0.180176
20,-1.72788e-37,-0.226888,-0.0805195,9.34204,-1.10333,0.23113,0.667725,-4.04346,0.174072
21,-1.72882e-37,-0.179608,-0.0783952,9.38053,-1.10966,0.0475272,3.60449,-4.04297,0.181641
22,-1.72975e-37,-0.183349,-0.0819215,9.41896,-0.993294,0.0377426,-0.692139,-4.04663,0.176514
23,-1.73068e-37,-0.177863,-0.103537,9.44817,-0.919602,0.12314,-1.9541,-4.04468,0.176758
24,-1.73162e-37,-0.196353,-0.0770361,9.35669,-0.865479,0.0919679,5.81494,-4.04834,0.177734
25,-1.73255e-37,-0.225815,-0.0543831,9.32196,-0.928004,0.236227,7.38477,-4.04541,0.174561
26,-1.73349e-37,-0.216989,-0.0743538,9.4171,-1.08848,0.134308,-3.89258,-4.04639,0.177734
27,-1.73442e-37,-0.222661,-0.0647189,9.37685,-1.16701,0.00441846,-0.369385,-4.05298,0.174561
28,-1.73536e-37,-0.213434,-0.0920785,9.40602,-1.03776,0.163662,0.62793,-4.05298,0.175781
29,-1.73629e-37,-0.215551,-0.06959,9.38048,-1.11153,0.165353,6.96851,-4.04785,0.177734
30,-1.73722e-37,-0.20299,-0.0750477,9.44089,-1.077,0.125907,1.51782,-4.05176,0.17627
31,-1.73816e-37,-0.186611,-0.0836024,9.39872,-1.09652,0.0159449,4.09204,-4.05444,0.179199
32,-1.73909e-37,-0.168321,-0.0851188,9.41336,-1.04596,0.152289,-3.36279,-4.05029,0.176514
33,-1.74003e-37,-0.175831,-0.0827298,9.37492,-0.934612,0.229465,0.154053,-4.05176,0.176758
34,-1.74096e-37,-0.1945,-0.0713067,9.38045,-1.02452,0.116353,-3.47021,-4.04834,0.176514
35,-1.74189e-37,-0.200036,-0.107743,9.41502,-1.04094,0.103084,-0.267822,-4.05054,0.177734
36,-1.74283e-37,-0.193005,-0.0650837,9.39329,-0.860766,0.185434,-5.77515,-4.05078,0.178711
37,-1.74376e-37,-0.187705,-0.0753337,9.38041,-0.898599,0.247702,-5.82935,-4.04956,0.17627
38,-1.7447e-37,-0.210179,-0.0495477,9.43547,-0.904618,0.029879,-4.94385,-4.04492,0.179199
39,-1.74563e-37,-0.189944,-0.0725227,9.40788,-0.983612,0.176008,-5.74048,-4.03735,0.172852
40,-1.74657e-37,-0.204822,-0.0757844,9.40784,-1.01148,0.152648,-1.58838,-4.04346,0.178223
41,-1.7475e-37,-0.181217,-0.0732666,9.3859,-0.916375,0.141327,-1.06177,-4.04541,0.177734
42,-1.74843e-37,-0.181338,-0.096871,9.43884,-0.961994,0.0496788,3.96802,-4.03979,0.177734
43,-1.74937e-37,-0.201724,-0.0540826,9.39698,-0.955641,0.128391,2.91821,-4.03979,0.181152
44,-1.7503e-37,-0.183399,-0.0920142,9.40774,-1.14224,0.0146642,1.19019,-4.04199,0.173096
45,-1.75124e-37,-0.210866,-0.0936236,9.3912,-0.924623,0.177545,5.07227,-4.04199,0.178711
46,-1.75217e-37,-0.216581,-0.096828,9.3985,-0.970677,0.204799,0.729492,-4.05054,0.177979
47,-1.7531e-37,-0.216824,-0.0998537,9.37831,-0.855772,0.139508,1.5686,-4.05054,0.174316
48,-1.75404e-37,-0.180359,-0.102586,9.3655,-1.02444,0.0701446,-6.823,-4.05176,0.178711
49,-1.75497e-37,-0.173256,-0.0934662,9.42967,-0.91658,0.183283,2.20581,-4.0564,0.174805
50,-1.75591e-37,-0.202983,-0.0581526,9.41343,-0.999724,0.04243,-1.68433,-4.05029,0.177246
51,-1.75684e-37,-0.191939,-0.0739604,9.39133,-1.00626,0.0477321,7.80273,-4.04395,0.176025
52,-1.75778e-37,-0.210365,-0.0739389,9.42978,-0.929182,0.0295972,-5.14771,-4.04932,0.178223
53,-1.75871e-37,-0.182705,-0.102121,9.38013,-0.94765,0.167351,-2.73682,-4.04785,0.174316
54,-1.75964e-37,-0.197733,-0.0798329,9.39311,-0.96412,0.193323,-1.84106,-4.05054,0.174805
55,-1.76058e-37,-0.196152,-0.0830016,9.39491,-0.921293,0.124729,3.927,-4.04883,0.179199
56,-1.76151e-37,-0.15983,-0.0563,9.36222,-1.0278,0.114739,3.03174,-4.04614,0.176025
57,-1.76245e-37,-0.176547,-0.0565861,9.42997,-1.08018,0.0964504,-2.16064,-4.04712,0.179199
58,-1.76338e-37,-0.196732,-0.0672153,9.41152,-0.836023,0.145194,-6.57446,-4.04175,0.17749
59,-1.76431e-37,-0.213405,-0.0704197,9.42246,-0.864199,0.2153,-4.31323,-4.0459,0.176758
60,-1.76525e-37,-0.20083,-0.0673941,9.36939,-0.911867,0.252928,4.81348,-4.04468,0.180176
61,-1.76618e-37,-0.199207,-0.090741,9.382,-0.939274,0.133335,5.8064,-4.04199,0.174316
62,-1.76712e-37,-0.19224,-0.0722008,9.41881,-0.95098,0.178749,4.66089,-4.04834,0.179199
63,-1.76805e-37,-0.185109,-0.0770074,9.40595,-0.970703,0.193349,-7.98071,-4.04932,0.174072
64,-1.76899e-37,-0.210973,-0.0841818,9.42048,-0.83779,0.144375,-2.46777,-4.05298,0.177734
65,-1.76992e-37,-0.211152,-0.0756699,9.36746,-1.02321,0.197908,-0.739014,-4.05127,0.178223
66,-1.77085e-37,-0.205852,-0.0919283,9.39112,-0.895192,0.159128,7.86401,-4.05054,0.175293
67,-1.77179e-37,-0.191575,-0.0653484,9.36759,-1.01806,0.152238,-1.21436,-4.04858,0.179199
68,-1.77272e-37,-0.199178,-0.0653627,9.40421,-0.895243,0.173857,0.834229,-4.05054,0.173096
69,-1.77366e-37,-0.197561,-0.0626018,9.37311,-0.949494,0.214788,-0.217285,-4.04883,0.179688
70,-1.77459e-37,-0.166776,-0.0601483,9.386,-0.913147,0.142633,-7.71655,-4.05054,0.176025
71,-1.77552e-37,-0.195952,-0.0963416,9.37641,-0.975672,0.214942,-0.169189,-4.04565,0.175293
72,-1.77646e-37,-0.187412,-0.0650693,9.41521,-0.959253,0.179978,1.25659,-4.05249,0.177734
73,-1.77739e-37,-0.202168,-0.0791391,9.39673,-0.950852,0.164303,6.70215,-4.04468,0.175293
74,-1.77833e-37,-0.207833,-0.0840674,9.3875,-0.80485,0.147167,-2.5354,-4.0415,0.178711
75,-1.77926e-37,-0.23917,-0.0836239,9.38746,-0.885279,0.151316,2.0874,-4.04614,0.173584
76,-1.7802e-37,-0.212075,-0.0703196,9.41879,-0.99834,0.127469,4.87378,-4.05078,0.174316
77,-1.78113e-37,-0.192175,-0.0584746,9.39697,-0.911636,0.168836,3.61523,-4.05078,0.177734
78,-1.78206e-37,-0.179415,-0.0817212,9.40771,-0.863686,0.082337,-5.77734,-4.04932,0.176758
79,-1.783e-37,-0.203405,-0.0681881,9.3822,-0.852647,0.180696,3.56079,-4.04956,0.177734
80,-1.78393e-37,-0.196123,-0.0952473,9.40753,-0.836177,0.157745,5.08301,-4.05029,0.174316
81,-1.78487e-37,-0.190966,-0.0796398,9.38758,-0.810102,0.202365,-4.10059,-4.04785,0.180176
82,-1.7858e-37,-0.178506,-0.0735241,9.40415,-0.72332,0.210613,0.258057,-4.05127,0.176514
83,-1.78673e-37,-0.200952,-0.0507352,9.38791,-0.947573,0.137433,-3.8335,-4.05151,0.17334
84,-1.78767e-37,-0.18621,-0.0870143,9.41313,-0.870064,0.0326197,6.81885,-4.05396,0.176758
85,-1.7886e-37,-0.193627,-0.0750405,9.37848,-0.829286,0.0889198,-6.5625,-4.05054,0.17334
86,-1.78954e-37,-0.193949,-0.0600767,9.40798,-0.992936,0.0344127,-5.30884,-4.04663,0.178223
87,-1.79047e-37,-0.193799,-0.0815782,9.40587,-1.00497,0.152264,7.07324,-4.04785,0.174561
88,-1.79141e-37,-0.186889,-0.0648977,9.42991,-0.762203,0.122218,1.0415,-4.04858,0.176758
89,-1.79234e-37,-0.179543,-0.0822077,9.41688,-0.865582,0.131132,-4.40845,-4.05273,0.175781
90,-1.79327e-37,-0.185209,-0.083488,9.41869,-0.878415,0.0755236,3.24731,-4.05054,0.174805
91,-1.79421e-37,-0.18875,-0.0989309,9.38368,-0.796961,0.174113,-6.0874,-4.05273,0.177734
92,-1.79514e-37,-0.198305,-0.079747,9.36562,-0.885561,0.205516,4.7627,-4.0459,0.174561
93,-1.79608e-37,-0.208012,-0.0653269,9.42072,-0.876161,0.26553,-4.04199,-4.05249,0.178223
94,-1.79701e-37,-0.213806,-0.064304,9.38594,-0.772346,0.164251,2.93726,-4.05396,0.177734
95,-1.79794e-37,-0.219814,-0.0399772,9.39907,-0.875956,0.244475,6.91919,-4.05005,0.175293
96,-1.79888e-37,-0.186947,-0.0607849,9.38422,-0.821295,0.123012,4.30103,-4.05396,0.178711
97,-1.79981e-37,-0.188793,-0.0746398,9.37486,-0.95454,0.229568,-0.481445,-4.04761,0.173828
98,-1.80075e-37,-0.199936,-0.0967565,9.41299,-0.820808,0.0448889,-7.1936,-4.04907,0.178711
99,-1.80168e-37,-0.203799,-0.0851761,9.41681,-0.728059,0.189968,7.01855,-4.04614,0.172607
100,-1.80262e-37,-0.189608,-0.07165,9.43535,-0.956077,0.196525,0.98999,-4.04932,0.175293
101,-1.80355e-37,-0.200637,-0.081571,9.38757,-0.891683,0.104673,4.24756,-4.05322,0.177246
102,-1.80448e-37,-0.212032,-0.065048,9.41709,-0.885971,0.252185,-4.40747,-4.05371,0.175781
103,-1.80542e-37,-0.190387,-0.0698833,9.42989,-0.880105,0.115559,1.35132,-4.04468,0.176758
104,-1.80635e-37,-0.206867,-0.0801834,9.41139,-0.904669,0.103597,5.65649,-4.04761,0.174316
105,-1.80729e-37,-0.201646,-0.0646045,9.3915,-0.961097,0.204542,-6.6145,-4.05078,0.177734
106,-1.80822e-37,-0.222039,-0.0738173,9.41329,-0.808129,0.133745,5.9707,-4.04712,0.177002
107,-1.80915e-37,-0.218598,-0.0693325,9.40789,-0.732849,0.153801,-5.93726,-4.04761,0.175293
108,-1.81009e-37,-0.209492,-0.0791247,9.38944,-0.867733,0.224726,-0.949219,-4.05078,0.179688
109,-1.81102e-37,-0.205959,-0.0929084,9.37643,-0.826904,0.217478,0.63501,-4.05835,0.175293
110,-1.81196e-37,-0.199271,-0.0726514,9.41889,-0.7131,0.130441,-6.03589,-4.052,0.179688
111,-1.81289e-37,-0.184951,-0.0566433,9.39719,-0.837816,0.156055,-5.56592,-4.05078,0.176025
112,-1.81383e-37,-0.186632,-0.087093,9.39488,-0.80964,0.115507,-4.8335,-4.04883,0.175293
113,-1.81476e-37,-0.188534,-0.0937381,9.39478,-0.817043,0.241376,3.45752,-4.05103,0.179688
114,-1.81569e-37,-0.20005,-0.0785025,9.39316,-0.788637,0.161741,4.92163,-4.04712,0.177246
115,-1.81663e-37,-0.194657,-0.0847255,9.37476,-0.759795,0.24281,-7.08057,-4.05542,0.178223
116,-1.81756e-37,-0.193306,-0.0749188,9.38409,-0.806797,0.169195,-4.19971,-4.05225,0.175781
117,-1.8185e-37,-0.197561,-0.0526522,9.40642,-0.930207,0.228543,1.89087,-4.05591,0.180176
118,-1.81943e-37,-0.204936,-0.0722294,9.39877,-0.789226,0.249982,7.54785,-4.04956,0.17627
119,-1.82036e-37,-0.203756,-0.0476021,9.39552,-0.929643,0.158744,-2.47021,-4.05103,0.17627
120,-1.8213e-37,-0.19641,-0.071085,9.41348,-0.751342,0.217196,6.34351,-4.05127,0.177734
121,-1.82223e-37,-0.187476,-0.0695829,9.37873,-0.899879,0.134923,-7.93188,-4.04663,0.176758
122,-1.82317e-37,-0.20415,-0.0751835,9.40607,-0.865761,0.162023,-1.46997,-4.05371,0.180664
123,-1.8241e-37,-0.187884,-0.0800546,9.41885,-0.887251,0.189968,-4.40942,-4.05225,0.173096
124,-1.82504e-37,-0.176883,-0.093409,9.38753,-0.859409,0.183359,-6.45337,-4.05396,0.177734
125,-1.82597e-37,-0.190058,-0.0856195,9.38763,-0.886842,0.132771,4.87402,-4.05078,0.178223
126,-1.8269e-37,-0.194043,-0.0798686,9.40422,-0.810588,0.0191723,-4.15479,-4.04663,0.17627
127,-1.82784e-37,-0.198077,-0.0534532,9.39735,-0.823165,0.176059,7.80981,-4.04932,0.180664
128,-1.82877e-37,-0.200044,-0.0679233,9.42456,-0.883512,0.1298,-4.72852,-4.04883,0.175049
129,-1.82971e-37,-0.198427,-0.0614286,9.40271,-0.848523,0.282282,0.781738,-4.05029,0.179199
130,-1.83064e-37,-0.204199,-0.0739963,9.4208,-0.841863,0.259178,3.51123,-4.05176,0.178467
131,-1.83157e-37,-0.206381,-0.0772221,9.43172,-0.906974,0.213559,-3.84009,-4.04663,0.17627
132,-1.83251e-37,-0.184615,-0.0756698,9.3952,-0.828697,0.245807,-6.50513,-4.0542,0.17627
133,-1.83344e-37,-0.190645,-0.0602985,9.38815,-0.891068,0.268809,-0.057373,-4.05103,0.175293
134,-1.83438e-37,-0.218298,-0.0787743,9.40788,-0.913301,0.151752,6.97681,-4.0542,0.181152
135,-1.83531e-37,-0.205458,-0.0944677,9.40579,-0.928029,0.177238,1.302,-4.04736,0.176758
136,-1.83625e-37,-0.185867,-0.0754267,9.41171,-0.837048,0.27073,7.02588,-4.05151,0.175293
137,-1.83718e-37,-0.193699,-0.0616432,9.38999,-0.862662,0.190147,2.2002,-4.052,0.178711
138,-1.83811e-37,-0.199414,-0.0687245,9.40633,-0.835767,0.0918142,2.72607,-4.05298,0.176758
139,-1.83905e-37,-0.203048,-0.0769789,9.3915,-0.761665,0.264224,-6.7666,-4.05493,0.178711
140,-1.83998e-37,-0.188964,-0.0711064,9.42281,-0.786741,0.348571,-4.36108,-4.04907,0.176514
141,-1.84092e-37,-0.191267,-0.0662711,9.39909,-0.866145,0.209537,3.56616,-4.05347,0.177734
142,-1.84185e-37,-0.205881,-0.0857983,9.38769,-0.866273,0.229286,4.40503,-4.05298,0.177246
143,-1.84278e-37,-0.202819,-0.0707488,9.40266,-0.806618,0.147884,-3.04565,-4.05225,0.177246
144,-1.84372e-37,-0.208627,-0.066643,9.41188,-0.84591,0.156516,4.18799,-4.04761,0.179199
145,-1.84465e-37,-0.208798,-0.0616004,9.37537,-0.731619,0.212995,-4.67676,-4.04858,0.176758
146,-1.84559e-37,-0.183027,-0.0917066,9.38401,-0.711973,0.202519,2.62183,-4.05347,0.177246
147,-1.84652e-37,-0.183649,-0.0708275,9.38993,-0.778186,0.299571,5.60522,-4.04834,0.174072
148,-1.84745e-37,-0.189665,-0.0667002,9.39916,-0.88907,0.214686,-7.24438,-4.05078,0.176758
149,-1.84839e-37,-0.196911,-0.0898968,9.39317,-0.753238,0.262431,1.50977,-4.0459,0.176758
150,-1.84932e-37,-0.188255,-0.0817642,9.39887,-0.780389,0.18756,5.49097,-4.0415,0.176758
151,-1.85026e-37,-0.184908,-0.0831304,9.41535,-0.79732,0.227083,-7.82251,-4.04956,0.180176
152,-1.85119e-37,-0.21289,-0.0698976,9.40821,-0.793708,0.165634,-7.60669,-4.05444,0.176514
153,-1.85213e-37,-0.20382,-0.0760776,9.39531,-0.823165,0.188073,3.39941,-4.04639,0.178711
154,-1.85306e-37,-0.204185,-0.0678732,9.38632,-0.849573,0.212713,-1.79614,-4.04492,0.176514
155,-1.85399e-37,-0.202604,-0.0788816,9.41908,-0.813098,0.141275,4.08862,-4.052,0.177246
156,-1.85493e-37,-0.171583,-0.0789959,9.39538,-0.874393,0.241939,-0.379639,-4.04517,0.179199
157,-1.85586e-37,-0.204671,-0.103773,9.4442,-0.946344,0.235484,6.32959,-4.04102,0.17627
158,-1.8568e-37,-0.22681,-0.100633,9.38925,-0.894705,0.293117,-6.92822,-4.05176,0.179199
159,-1.85773e-37,-0.181882,-0.0815996,9.41914,-0.936585,0.212816,-6.03882,-4.04956,0.177246
160,-1.85866e-37,-0.226094,-0.0795897,9.40072,-0.795117,0.151393,-4.04297,-4.05151,0.178711
161,-1.8596e-37,-0.191911,-0.0522086,9.3813,-0.887328,0.215429,-6.41064,-4.04639,0.178223
162,-1.86053e-37,-0.176082,-0.0512214,9.46016,-0.854491,0.185152,-1.52417,-4.05249,0.17627
163,-1.86147e-37,-0.216209,-0.0589037,9.39026,-0.911892,0.232539,6.22461,-4.04102,0.182617
164,-1.8624e-37,-0.222203,-0.0512787,9.39773,-0.809692,0.146962,-6.14648,-4.0481,0.175537
165,-1.86334e-37,-0.198627,-0.0501128,9.39604,-0.85239,0.153237,2.24634,-4.04736,0.179199
166,-1.86427e-37,-0.189507,-0.0622512,9.40131,-0.898496,0.174164,-7.56348,-4.04736,0.177002
167,-1.8652e-37,-0.174908,-0.0763423,9.41388,-0.9195,0.149805,-5.15381,-4.04492,0.179199
168,-1.86614e-37,-0.176868,-0.0872934,9.43563,-0.910202,0.186331,-6.24585,-4.052,0.178711
169,-1.86707e-37,-0.212025,-0.0717573,9.39372,-0.935867,0.14125,-5.09961,-4.04614,0.175293
170,-1.86801e-37,-0.212196,-0.075019,9.39917,-0.955821,0.156721,-2.31372,-4.05029,0.180176
171,-1.86894e-37,-0.21249,-0.0707702,9.39562,-0.908255,0.164149,4.81763,-4.04761,0.175049
172,-1.86987e-37,-0.215064,-0.0487753,9.41811,-0.853569,0.262149,-5.19556,-4.05249,0.177734
173,-1.87081e-37,-0.204142,-0.068374,9.43054,-0.909818,0.160947,-6.93408,-4.04736,0.180176
174,-1.87174e-37,-0.180502,-0.0689034,9.41781,-0.844066,0.117813,5.19189,-4.05322,0.177246
175,-1.87268e-37,-0.198949,-0.0723224,9.42133,-0.916477,0.167479,6.39038,-4.04712,0.179199
176,-1.87361e-37,-0.197218,-0.0728803,9.39204,-0.8507,0.309996,6.39526,-4.05103,0.172119
177,-1.87455e-37,-0.188663,-0.0627806,9.38683,-0.991091,0.236125,-1.89014,-4.05322,0.180664
178,-1.87548e-37,-0.194321,-0.0775869,9.40846,-0.887841,0.0872293,0.20166,-4.0481,0.177002
179,-1.87641e-37,-0.172806,-0.0539539,9.38166,-0.888302,0.306794,-5.56812,-4.04883,0.176758
180,-1.87735e-37,-0.207998,-0.0598621,9.39603,-1.04583,0.155005,2.24487,-4.0459,0.179199
181,-1.87828e-37,-0.219013,-0.0585317,9.34843,-1.05364,0.0999595,4.13916,-4.05029,0.174805
182,-1.87922e-37,-0.18395,-0.0935663,9.40085,-0.90034,0.186843,-2.73413,-4.0498,0.177246
183,-1.88015e-37,-0.187969,-0.0914492,9.41005,-0.76899,0.163329,0.939209,-4.05054,0.176025
184,-1.88138e-37,-0.199557,-0.0766284,9.42504,-0.992936,0.257666,-4.93481,-4.05176,0.177246
185,-1.88325e-37,-0.194207,-0.0828871,9.40478,-0.946139,0.173191,3.66626,-4.05005,0.178711
186,-1.88512e-37,-0.194593,-0.0769789,9.4086,-0.936789,0.227467,-4.30786,-4.0498,0.175293
187,-1.88698e-37,-0.187941,-0.0659207,9.43275,-0.864327,0.211279,6.49121,-4.04419,0.179688
188,-1.88885e-37,-0.214163,-0.0429171,9.3966,-0.913045,0.149164,5.18604,-4.04883,0.175781
189,-1.89072e-37,-0.230464,-0.0607062,9.38511,-0.970651,0.162791,6.50122,-4.05151,0.177734
190,-1.89259e-37,-0.201453,-0.0679878,9.42537,-0.919756,0.16566,-5.83154,-4.0481,0.177979
191,-1.89446e-37,-0.185366,-0.0637461,9.43656,-0.897062,0.16963,-7.55493,-4.05371,0.175293
192,-1.89633e-37,-0.188685,-0.0782306,9.37941,-0.917041,0.209307,7.70728,-4.05127,0.180176
193,-1.89819e-37,-0.198155,-0.0859844,9.41031,-0.878594,0.132464,-1.05249,-4.05225,0.175781
194,-1.90006e-37,-0.18754,-0.0778802,9.41242,-0.941272,0.179825,0.780762,-4.0498,0.179688
195,-1.90193e-37,-0.182512,-0.0701621,9.42183,-0.885766,0.205183,-4.67603,-4.04907,0.177002
196,-1.9038e-37,-0.191975,-0.0635816,9.39633,-0.970293,0.310124,-6.20288,-4.04492,0.178711
197,-1.90567e-37,-0.20528,-0.0614929,9.39452,-0.866248,0.218323,4.76758,-4.0498,0.177246
198,-1.90754e-37,-0.19483,-0.0515863,9.39852,-0.843733,0.112382,-3.62793,-4.0481,0.173828
199,-1.9094e-37,-0.207719,-0.0628163,9.42199,-0.982972,0.090764,-4.62207,-4.05029,0.181641
200,-1.91127e-37,-0.187404,-0.0661853,9.37623,-0.865966,0.187074,-1.84155,-4.05054,0.176758
201,-1.91314e-37,-0.174651,-0.078388,9.38697,-0.93328,0.210229,7.43799,-4.04614,0.178223
202,-1.91501e-37,-0.178535,-0.0835166,9.39049,-0.864019,0.297958,-6.71582,-4.05322,0.179443
203,-1.91688e-37,-0.199242,-0.071743,9.36876,-0.822089,0.0642021,-4.40942,-4.05225,0.17627
204,-1.91875e-37,-0.208327,-0.0866352,9.3958,-0.723909,0.0866914,1.67505,-4.05151,0.180176
205,-1.92061e-37,-0.210601,-0.0710635,9.39073,-0.83943,0.161203,3.4563,-4.05005,0.17627
206,-1.92248e-37,-0.201338,-0.078388,9.35578,-0.974263,0.185434,-6.97974,-4.05249,0.181152
207,-1.92435e-37,-0.1945,-0.0871646,9.43071,-0.976389,0.222703,-2.0459,-4.05444,0.174561
208,-1.92622e-37,-0.202719,-0.0591469,9.42231,-0.86302,0.22009,-0.793457,-4.04956,0.177246
209,-1.92809e-37,-0.204371,-0.0803621,9.41624,-0.91243,0.232155,4.66528,-4.05176,0.179199
210,-1.92996e-37,-0.204578,-0.0851904,9.41245,-0.944448,0.15772,-4.61792,-4.05322,0.178223
211,-1.93182e-37,-0.212361,-0.0777729,9.4218,-0.927491,0.282615,2.34839,-4.04541,0.179688
212,-1.93369e-37,-0.192297,-0.0830588,9.38514,-0.938992,0.270294,-3.78442,-4.04883,0.175049
213,-1.93556e-37,-0.203648,-0.0866997,9.39415,-0.818964,0.224803,7.70923,-4.05273,0.180664
214,-1.93743e-37,-0.197032,-0.0693182,9.39288,-0.94911,0.164277,5.33936,-4.04565,0.177002
215,-1.9393e-37,-0.188685,-0.0490041,9.41185,-0.894372,0.0901237,-0.897705,-4.05005,0.176758
216,-1.94116e-37,-0.177398,-0.0662495,9.4041,-0.966092,0.209819,-5.46655,-4.04639,0.179199
217,-1.94303e-37,-0.195938,-0.0656487,9.38574,-0.971138,0.205618,2.30225,-4.05005,0.177734
218,-1.9449e-37,-0.179422,-0.0793179,9.38178,-0.734078,0.142223,-7.56616,-4.04541,0.180176
219,-1.94677e-37,-0.183828,-0.0649264,9.41517,-0.868527,0.13541,-3.68237,-4.04688,0.174561
220,-1.94864e-37,-0.205609,-0.077079,9.39641,-0.928286,0.186484,0.466553,-4.0498,0.177246
221,-1.95051e-37,-0.214907,-0.0800332,9.38347,-0.975646,0.197447,-6.9397,-4.04297,0.179688
222,-1.95237e-37,-0.211889,-0.070992,9.40577,-0.839302,0.172448,-4.94458,-4.04443,0.176758
223,-1.95424e-37,-0.22329,-0.0569581,9.37867,-0.976338,0.230285,-0.268799,-4.04956,0.181152
224,-1.95611e-37,-0.20681,-0.0748259,9.3929,-0.994114,0.213917,-2.47339,-4.04858,0.17749
225,-1.95798e-37,-0.205659,-0.0637962,9.40793,-0.910509,0.0668147,1.98853,-4.05054,0.181152
226,-1.95985e-37,-0.190581,-0.0867854,9.41099,-0.857027,0.239993,-2.5686,-4.05591,0.178223
227,-1.96172e-37,-0.185573,-0.0763065,9.39305,-0.794912,0.135486,-6.14282,-4.05054,0.175293
228,-1.96358e-37,-0.202361,-0.076421,9.40764,-0.789226,0.214609,0.150146,-4.04883,0.179688
229,-1.96545e-37,-0.202569,-0.0792392,9.40389,-0.834691,0.191915,-6.98853,-4.04565,0.176514
230,-1.96732e-37,-0.219256,-0.0826368,9.40372,-0.922036,0.333254,6.97534,-4.05322,0.179688
231,-1.96919e-37,-0.221981,-0.0552128,9.36243,-0.917015,0.07204,-2.4729,-4.04907,0.175781
232,-1.97106e-37,-0.205494,-0.0700836,9.40057,-0.944038,0.142402,-0.952393,-4.04834,0.17627
233,-1.97293e-37,-0.207518,-0.0673297,9.38602,-0.853441,0.226289,1.57031,-4.05151,0.176758
234,-1.97479e-37,-0.206696,-0.0473733,9.41416,-0.917041,0.220398,1.56226,-4.04565,0.177246
235,-1.97666e-37,-0.193456,-0.0735455,9.40062,-0.878184,0.256693,-4.52148,-4.04688,0.181152
236,-1.97853e-37,-0.196682,-0.103838,9.39049,-0.801879,0.160998,7.13232,-4.05298,0.175049
237,-1.9804e-37,-0.193492,-0.104253,9.42899,-0.902697,0.23592,-2.89136,-4.05005,0.179688
238,-1.98227e-37,-0.185244,-0.0668147,9.37163,-0.923982,0.120246,4.13306,-4.0459,0.178711
239,-1.98414e-37,-0.187569,-0.0616503,9.39746,-0.924956,0.0484493,-6.98169,-4.05103,0.176758
240,-1.986e-37,-0.209235,-0.0782449,9.4005,-0.950749,0.16794,3.55396,-4.04419,0.179688
241,-1.98787e-37,-0.194944,-0.0757701,9.40801,-0.928004,0.0357703,-3.88892,-4.04932,0.175537
242,-1.98974e-37,-0.202325,-0.0731235,9.39344,-0.857436,0.275187,-7.39941,-4.05249,0.180664
243,-1.99161e-37,-0.193449,-0.0756699,9.3861,-0.878235,0.125292,-5.67456,-4.04785,0.174805
244,-1.99348e-37,-0.225021,-0.0709563,9.40443,-0.94911,0.153852,-4.15283,-4.0481,0.177246
245,-1.99535e-37,-0.212296,-0.0796899,9.41706,-0.989836,0.131901,3.08716,-4.04834,0.179199
246,-1.99721e-37,-0.214092,-0.0903905,9.42039,-1.00328,0.171987,4.86597,-4.04492,0.177002
247,-1.99908e-37,-0.20136,-0.0864564,9.38032,-1.07096,0.0739867,-1.79443,-4.04639,0.179688
248,-2.00095e-37,-0.203813,-0.0636603,9.36462,-0.963454,0.10142,2.35938,-4.05322,0.174561
249,-2.00282e-37,-0.209686,-0.0623299,9.3903,-1.0153,0.0760102,6.18091,-4.04761,0.180664
250,-2.00469e-37,-0.174364,-0.097107,9.42968,-1.06496,0.0975518,-6.66724,-4.05054,0.176025
251,-2.00656e-37,-0.162055,-0.0836096,9.43025,-0.94181,0.339145,1.51343,-4.04834,0.177246
252,-2.00842e-37,-0.175752,-0.0560284,9.378,-0.804594,0.273265,7.54053,-4.04419,0.178223
253,-2.01029e-37,-0.192211,-0.0659779,9.35561,-0.870577,0.162868,-2.15845,-4.04907,0.175293
254,-2.01216e-37,-0.213884,-0.0901544,9.3675,-1.12723,0.0932742,-6.98169,-4.05103,0.180176
255,-2.01403e-37,-0.203012,-0.102021,9.40934,-1.05648,0.079545,-2.83765,-4.05078,0.175293
256,-2.0159e-37,-0.211495,-0.0568723,9.37972,-0.962711,0.0599757,-7.19385,-4.04907,0.177246
257,-2.01777e-37,-0.20955,-0.061307,9.36495,-1.00244,-0.00414951,-5.31519,-4.04175,0.177734
258,-2.01963e-37,-0.202547,-0.0665572,9.42898,-1.08848,0.138022,-3.93921,-4.05103,0.176758
259,-2.0215e-37,-0.191639,-0.0671294,9.41074,-1.15387,0.000653163,-4.77637,-4.05249,0.181641
260,-2.02337e-37,-0.20621,-0.0687388,9.39967,-1.14032,0.105595,0.725098,-4.04712,0.177002
261,-2.02524e-37,-0.207755,-0.0806412,9.37912,-1.13451,0.0399966,-5.4126,-4.04761,0.179199
262,-2.02711e-37,-0.185766,-0.0812134,9.36828,-1.0612,0.0455037,2.99048,-4.05469,0.176514
263,-2.02898e-37,-0.19985,-0.096406,9.33104,-1.3324,0.00631391,-7.98364,-4.04688,0.178711
264,-2.03084e-37,-0.186332,-0.0832162,9.43425,-1.03466,-0.0561976,-1.06201,-4.04492,0.178223
265,-2.03271e-37,-0.213734,-0.0771148,9.40687,-1.07531,0.115764,7.34521,-4.05493,0.174561
266,-2.03458e-37,-0.225193,-0.055177,9.35816,-1.29962,0.103827,6.23853,-4.05127,0.181152
267,-2.03645e-37,-0.212518,-0.0587749,9.36732,-1.25041,-0.0118338,-1.68311,-4.05127,0.176025
268,-2.03832e-37,-0.208756,-0.0835238,9.44894,-1.38583,-0.0648809,-5.87817,-4.05225,0.17627
269,-2.04019e-37,-0.176997,-0.0812134,9.35764,-1.10612,-0.0061218,3.19409,-4.0498,0.179199
270,-2.04205e-37,-0.182068,-0.0911558,9.33347,-1.30935,0.0937097,5.50488,-4.05176,0.177246
271,-2.04392e-37,-0.206419,-0.10838,9.43173,-1.59272,0.100216,-2.00757,-4.04395,0.181641
272,-2.04579e-37,-0.182703,-0.0925137,9.40505,-1.50527,-0.174894,1.56348,-4.04663,0.17627
273,-2.04766e-37,-0.17458,-0.103094,9.59528,-1.13174,0.0836945,7.48828,-4.04443,0.180176
274,-2.04953e-37,-0.156755,-0.056722,9.45424,-0.45747,0.0659951,-2.16602,-4.04321,0.177246
275,-2.0514e-37,-0.185695,-0.0533389,9.37358,-0.467562,0.20964,2.07837,-4.03931,0.176758
276,-2.05326e-37,-0.222067,-0.0626946,9.33272,-0.542689,0.178262,-2.32471,-4.04199,0.180664
277,-2.05513e-37,-0.203463,-0.0834522,9.34306,-0.919346,0.355077,1.66748,-4.04614,0.175293
278,-2.057e-37,-0.221745,-0.114581,9.39127,-0.723756,-0.0181605,-5.25415,-4.04834,0.179688
279,-2.05887e-37,-0.205644,-0.100326,9.38828,-0.947522,0.241427,2.67188,-4.05176,0.175293
280,-2.06074e-37,-0.161296,-0.0702554,9.41722,-0.89468,0.33474,-1.4751,-4.0498,0.176758
281,-2.06261e-37,-0.191203,-0.0582313,9.38271,-0.997188,0.163688,-6.61353,-4.05176,0.178711
282,-2.06447e-37,-0.221559,-0.0870429,9.35763,-1.08612,0.186817,-1.99634,-4.05225,0.175293
283,-2.06634e-37,-0.208899,-0.096263,9.37755,-1.10492,0.121937,6.45215,-4.0542,0.179688
284,-2.06821e-37,-0.200737,-0.0918497,9.46761,-1.00766,0.0962455,-5.0918,-4.052,0.17627
285,-2.07008e-37,-0.175388,-0.0803765,9.43893,-0.907717,0.221806,1.30347,-4.04834,0.181152
286,-2.07195e-37,-0.170616,-0.0667003,9.43586,-0.924264,0.11789,2.51147,-4.04956,0.178711
287,-2.07382e-37,-0.194321,-0.0650122,9.38817,-0.868041,0.217298,-0.643311,-4.04395,0.176758
288,-2.07568e-37,-0.192175,-0.086342,9.38922,-0.956384,0.184922,0.832031,-4.04858,0.177734
289,-2.07755e-37,-0.207289,-0.087372,9.4166,-0.875008,0.124267,5.18408,-4.04736,0.175781
290,-2.07942e-37,-0.207124,-0.0909485,9.38351,-1.02931,0.234537,-6.35474,-4.04907,0.180664
291,-2.08129e-37,-0.170095,-0.0696901,9.44145,-0.776829,0.128033,3.2478,-4.05054,0.174805
292,-2.08316e-37,-0.205265,-0.0513503,9.387,-0.841402,0.0761383,4.08008,-4.04565,0.17627
293,-2.08503e-37,-0.197219,-0.0821503,9.40053,-0.92908,0.223446,4.65967,-4.04736,0.177246
294,-2.08689e-37,-0.224564,-0.0948181,9.38888,-0.858077,0.204184,7.90796,-4.04443,0.174805
295,-2.08876e-37,-0.194286,-0.0811562,9.40799,-0.904695,0.142684,2.81982,-4.04468,0.178711
296,-2.09063e-37,-0.18651,-0.0890386,9.35095,-0.857411,0.138176,-0.686523,-4.05103,0.174316
297,-2.0925e-37,-0.191396,-0.0641038,9.38128,-0.962122,0.224855,1.46509,-4.05151,0.180176
298,-2.09437e-37,-0.1891,-0.0912631,9.38756,-0.971266,0.189302,-5.09497,-4.04956,0.17749
299,-2.09624e-37,-0.192941,-0.0922859,9.37653,-1.00646,0.245243,1.24902,-4.04712,0.17627
300,-2.0981e-37,-0.196389,-0.0557778,9.38904,-0.989504,0.185947,-5.29907,-4.05396,0.177246
301,-2.09997e-37,-0.240099,-0.0753695,9.39715,-0.933075,0.155414,-7.0354,-4.0498,0.175293
302,-2.10184e-37,-0.200459,-0.0582599,9.38167,-0.705237,0.0714253,-7.03931,-4.04688,0.178711
303,-2.10371e-37,-0.187347,-0.0695829,9.37582,-0.938147,0.183001,-1.58545,-4.04541,0.175781
304,-2.10558e-37,-0.192397,-0.095283,9.38575,-0.905976,0.183283,3.25488,-4.05591,0.176758
305,-2.10745e-37,-0.178027,-0.0985089,9.40042,-0.761024,0.170066,3.40186,-4.04834,0.179199
306,-2.10931e-37,-0.191339,-0.092894,9.40609,-0.808539,0.25134,-7.87061,-4.05322,0.177734
307,-2.11118e-37,-0.197025,-0.0955691,9.39498,-0.968756,0.138919,-0.00830078,-4.04834,0.179688
308,-2.11305e-37,-0.183206,-0.0762422,9.39409,-0.930027,0.0719888,1.88135,-4.04907,0.175293
309,-2.11492e-37,-0.185809,-0.0598479,9.40763,-0.974673,0.106747,-0.273438,-4.04614,0.179688
310,-2.11679e-37,-0.195902,-0.0903476,9.39532,-0.945063,0.0788534,1.30884,-4.05225,0.177246
311,-2.11866e-37,-0.201524,-0.0920642,9.40076,-0.809,0.190327,-0.793701,-4.04956,0.176758
312,-2.12052e-37,-0.196717,-0.0802191,9.40133,-0.975313,0.230054,3.29883,-4.0498,0.178223
313,-2.12239e-37,-0.197376,-0.0706057,9.40178,-1.01817,0.245986,1.67163,-4.04907,0.174316
314,-2.12426e-37,-0.177985,-0.0672796,9.43509,-0.82442,0.147269,6.49268,-4.04517,0.180664
315,-2.12613e-37,-0.175695,-0.0818929,9.40885,-0.953541,0.2007,-2.78589,-4.05054,0.177246
316,-2.128e-37,-0.184658,-0.0983945,9.41362,-0.88241,0.166095,4.9248,-4.04956,0.179199
317,-2.12987e-37,-0.196017,-0.0899685,9.39379,-0.827186,0.205362,0.200684,-4.04761,0.175781
318,-2.13173e-37,-0.196367,-0.0872218,9.38844,-1.00741,0.186894,7.6001,-4.0498,0.176758
319,-2.1336e-37,-0.206109,-0.0754911,9.37427,-0.993243,0.226904,-4.78149,-4.04858,0.177246
320,-2.13547e-37,-0.19435,-0.0589466,9.39344,-0.96412,0.159026,1.35425,-4.04712,0.17334
321,-2.13734e-37,-0.199386,-0.0762921,9.37803,-0.833667,0.302747,4.8147,-4.04565,0.180176
322,-2.13921e-37,-0.187332,-0.0748045,9.4112,-0.991681,0.224726,-0.00561523,-4.05029,0.176514
323,-2.14108e-37,-0.210687,-0.0968567,9.40462,-0.867759,0.183846,-3.31519,-4.04663,0.176758
324,-2.14294e-37,-0.198842,-0.0777586,9.41107,-0.967296,0.229286,2.14819,-4.05225,0.179199
325,-2.14481e-37,-0.197132,-0.0845323,9.41083,-0.888993,0.251826,-5.35278,-4.05273,0.175293
326,-2.14668e-37,-0.200408,-0.0571441,9.42489,-1.0113,0.142223,4.448,-4.0459,0.177734
327,-2.14855e-37,-0.170788,-0.0676158,9.40453,-0.788329,0.208564,6.55811,-4.05469,0.17627
328,-2.15042e-37,-0.194028,-0.0932087,9.40143,-0.963736,0.139841,1.45776,-4.04565,0.178711
329,-2.15229e-37,-0.201474,-0.0922431,9.38496,-0.963915,0.237329,7.28369,-4.04834,0.178223
330,-2.15415e-37,-0.1993,-0.0607062,9.39011,-0.953772,0.222985,7.44019,-4.04761,0.178223
331,-2.15602e-37,-0.174815,-0.0884592,9.38541,-0.86594,0.247574,-6.35083,-4.052,0.181641
332,-2.15789e-37,-0.183184,-0.0787743,9.42249,-0.923265,0.138842,-2.30762,-4.05518,0.17627
333,-2.15976e-37,-0.201302,-0.0829373,9.39105,-0.893194,0.223804,7.38892,-4.04834,0.181641
334,-2.16163e-37,-0.189222,-0.0706915,9.38623,-0.900238,0.167043,3.03125,-4.04614,0.181152
335,-2.1635e-37,-0.196853,-0.0772722,9.41709,-0.863072,0.204363,-5.52148,-4.04468,0.178223
336,-2.16536e-37,-0.217611,-0.0724582,9.43004,-0.895525,0.252185,1.93701,-4.05127,0.179688
337,-2.16723e-37,-0.193506,-0.0867353,9.41311,-0.860305,0.122346,6.44604,-4.04932,0.177246
338,-2.1691e-37,-0.182734,-0.090133,9.42956,-0.849496,0.183718,6.01807,-4.04346,0.179688
339,-2.17097e-37,-0.201732,-0.0745898,9.41002,-0.8653,0.132695,1.04004,-4.04761,0.174316
340,-2.17284e-37,-0.190394,-0.0832662,9.38225,-0.842196,0.195065,-2.41455,-4.05322,0.179199
341,-2.17471e-37,-0.207512,-0.0785739,9.4007,-0.993064,0.230208,0.0908203,-4.0437,0.180176
342,-2.17657e-37,-0.191374,-0.0771864,9.39361,-0.983792,0.143965,0.258057,-4.05127,0.178223
343,-2.17844e-37,-0.197111,-0.0835954,9.41899,-0.845193,0.191095,-3.41504,-4.05054,0.180176
344,-2.18031e-37,-0.207118,-0.0664928,9.41242,-0.854593,0.171731,5.97314,-4.04907,0.173096
345,-2.18218e-37,-0.1944,-0.0618363,9.3761,-0.852416,0.0775727,-5.73413,-4.04224,0.178711
346,-2.18405e-37,-0.210608,-0.0748473,9.38092,-0.861663,0.205106,-4.2063,-4.04736,0.18042
347,-2.18592e-37,-0.214406,-0.0911344,9.426,-0.883794,0.0719888,6.44263,-4.04688,0.177246
348,-2.18778e-37,-0.199879,-0.0919212,9.42794,-0.923316,0.0701702,-4.9375,-4.0498,0.180176
349,-2.18965e-37,-0.195888,-0.0972571,9.40027,-0.922318,0.206156,3.8186,-4.0459,0.175293
350,-2.19152e-37,-0.212504,-0.105147,9.41081,-0.971241,0.179466,-2.05322,-4.04907,0.178711
351,-2.19339e-37,-0.193656,-0.0717216,9.38877,-0.923854,0.0998827,-5.98706,-4.04932,0.17627
352,-2.19526e-37,-0.192061,-0.0667503,9.3744,-0.984765,0.196781,5.18774,-4.05029,0.180664
353,-2.19713e-37,-0.185466,-0.0662925,9.41852,-0.849932,0.186945,0.831055,-4.0481,0.179199
354,-2.19899e-37,-0.196861,-0.0621367,9.41319,-0.941528,0.188431,-7.82983,-4.04419,0.177734
355,-2.20086e-37,-0.204056,-0.0704198,9.39995,-0.828928,0.179978,0.629639,-4.05444,0.177246
356,-2.20273e-37,-0.197575,-0.104353,9.40023,-0.92931,0.131209,6.07764,-4.04858,0.17627
357,-2.2046e-37,-0.182012,-0.0824722,9.38862,-0.869347,0.266068,-0.220459,-4.04639,0.178711
358,-2.20647e-37,-0.165817,-0.0916136,9.41401,-0.889377,0.27096,1.7771,-4.04956,0.176758
359,-2.20834e-37,-0.17488,-0.0994388,9.39161,-0.905642,0.0938634,-3.99438,-4.04883,0.177246
360,-2.2102e-37,-0.195745,-0.087186,9.39943,-0.774318,0.260125,5.08179,-4.04932,0.178223
361,-2.21207e-37,-0.199114,-0.0663784,9.43713,-0.876058,0.248471,-7.3457,-4.05322,0.177246
362,-2.21394e-37,-0.213391,-0.0819644,9.41979,-0.990502,0.159564,-4.78149,-4.04858,0.181641
363,-2.21581e-37,-0.189643,-0.0790747,9.38901,-0.801649,0.143196,3.71777,-4.04932,0.17627
364,-2.21768e-37,-0.19553,-0.0794824,9.40731,-1.00459,0.12501,-6.04102,-4.0481,0.176758
365,-2.21955e-37,-0.196589,-0.10004,9.38618,-0.820552,0.187099,-0.373779,-4.04956,0.179688
366,-2.22141e-37,-0.22133,-0.0861059,9.39588,-0.83008,0.164789,-4.25293,-4.05151,0.176758
367,-2.22328e-37,-0.19842,-0.0722652,9.4078,-0.77688,0.309894,-2.05444,-4.0481,0.181152
368,-2.22515e-37,-0.191288,-0.0807484,9.41481,-0.87301,0.178826,-0.634033,-4.05127,0.176514
369,-2.22702e-37,-0.207905,-0.0843392,9.41271,-0.969781,0.111332,-1.95068,-4.04712,0.182129
370,-2.22889e-37,-0.194722,-0.093316,9.39225,-0.899879,0.145886,-3.52588,-4.04614,0.177002
371,-2.23076e-37,-0.2046,-0.0778301,9.38016,-0.90198,0.0887917,-7.93384,-4.04517,0.17627
372,-2.23262e-37,-0.188399,-0.0794608,9.40043,-0.896575,0.211407,-4.56934,-4.05054,0.179199
373,-2.23449e-37,-0.18646,-0.0917853,9.40353,-0.820654,0.204875,2.24463,-4.0459,0.17627
374,-2.23636e-37,-0.190366,-0.0860988,9.37449,-0.910356,0.171218,-1.37256,-4.04785,0.182617
375,-2.23823e-37,-0.173357,-0.111591,9.3954,-0.944064,0.141762,-2.2666,-4.04614,0.177246
376,-2.2401e-37,-0.183335,-0.0945176,9.38708,-0.989606,0.16251,0.160889,-4.05713,0.177734
377,-2.24196e-37,-0.204664,-0.0731093,9.39172,-0.897395,0.181567,-1.05859,-4.04736,0.178223
378,-2.24383e-37,-0.191753,-0.0808843,9.38597,-0.967373,0.144708,-3.99341,-4.0498,0.174805
379,-2.2457e-37,-0.209943,-0.0902546,9.3854,-0.838507,0.16899,4.14185,-4.05273,0.178711
380,-2.24757e-37,-0.191067,-0.0626445,9.37601,-0.96102,0.234742,0.88623,-4.05029,0.177246
381,-2.24944e-37,-0.202797,-0.0603485,9.4036,-0.848676,0.280233,7.96655,-4.04907,0.180176
382,-2.25131e-37,-0.187569,-0.0754983,9.36632,-0.930898,0.200444,3.24878,-4.05151,0.178711
383,-2.25317e-37,-0.194979,-0.0943603,9.41667,-0.971189,0.174446,-1.10913,-4.04907,0.177246
384,-2.25504e-37,-0.182183,-0.0960555,9.3984,-0.904746,0.120195,-7.81909,-4.05249,0.180664
385,-2.25691e-37,-0.207054,-0.0789387,9.41382,-0.890709,0.178877,2.19238,-4.04614,0.176758
386,-2.25878e-37,-0.193019,-0.0680522,9.40355,-0.95536,0.279464,1.7771,-4.04956,0.181152
387,-2.26065e-37,-0.194035,-0.0895536,9.36763,-0.922112,0.182156,1.25171,-4.04858,0.17627
388,-2.26252e-37,-0.198655,-0.0817498,9.40104,-0.917681,0.0352068,-4.41089,-4.05127,0.17627
389,-2.26438e-37,-0.206417,-0.0719791,9.39422,-0.868348,0.108207,5.34692,-4.05151,0.178711
390,-2.26625e-37,-0.195323,-0.0803335,9.39943,-0.909408,0.196628,-1.10742,-4.05005,0.175293
391,-2.26812e-37,-0.16727,-0.100383,9.395,-0.935022,0.16689,-5.04297,-4.04932,0.179199
392,-2.26999e-37,-0.177255,-0.0898396,9.40653,-0.958305,0.252185,0.783691,-4.05176,0.176758
393,-2.27186e-37,-0.188907,-0.0845108,9.41043,-0.973034,0.115123,5.75879,-4.04565,0.180664
394,-2.27373e-37,-0.209399,-0.0787957,9.39962,-0.987147,0.228005,7.75757,-4.04956,0.17627
395,-2.27559e-37,-0.196467,-0.0793107,9.35941,-0.923829,0.172627,-0.42334,-4.05176,0.176758
396,-2.27746e-37,-0.208369,-0.0761921,9.40538,-0.940708,0.127597,-5.67285,-4.04883,0.178711
397,-2.27933e-37,-0.19003,-0.0846396,9.41615,-0.844834,0.170604,-5.67334,-4.04883,0.176758
398,-2.2812e-37,-0.183134,-0.072866,9.3857,-1.02347,0.229568,-4.82983,-4.05176,0.180664
399,-2.28307e-37,-0.192233,-0.0863205,9.39781,-0.880566,0.230464,-2.2627,-4.04907,0.176758
400,-2.28494e-37,-0.203742,-0.0755555,9.37083,-0.93474,0.159333,-6.19922,-4.04785,0.178711
401,-2.2868e-37,-0.200044,-0.093595,9.41212,-0.710923,0.218502,3.97217,-4.04321,0.179688
402,-2.28867e-37,-0.187412,-0.0910342,9.3904,-0.849983,0.10708,-4.573,-4.04761,0.179688
403,-2.29054e-37,-0.199422,-0.0682309,9.37876,-0.841069,0.217375,5.29395,-4.05078,0.179688
404,-2.29241e-37,-0.192697,-0.0663355,9.39548,-0.88218,0.168606,0.458496,-4.04395,0.17627
405,-2.29428e-37,-0.187083,-0.0744396,9.39148,-0.912456,0.124857,-3.94629,-4.04517,0.182129
406,-2.29615e-37,-0.212811,-0.0834738,9.41281,-0.868015,0.204107,-1.59009,-4.04248,0.178955
407,-2.29801e-37,-0.203856,-0.0907911,9.43089,-1.01481,0.206694,-2.31201,-4.05176,0.177734
408,-2.29988e-37,-0.200451,-0.089618,9.42003,-0.883486,0.201187,7.44604,-4.052,0.179199
409,-2.30175e-37,-0.195265,-0.0908196,9.42373,-0.929336,0.0648168,-1.53149,-4.04663,0.174316
410,-2.30362e-37,-0.177526,-0.0780304,9.41549,-0.908435,0.139943,-7.81958,-4.052,0.179199
411,-2.30549e-37,-0.208606,-0.0769645,9.38231,-0.956359,0.234255,6.81567,-4.05151,0.175049
412,-2.30736e-37,-0.193091,-0.0699905,9.41042,-0.882718,0.180055,6.65332,-4.04785,0.177246
413,-2.30922e-37,-0.203999,-0.0767571,9.40266,-0.869245,0.224445,4.40308,-4.052,0.179199
414,-2.31109e-37,-0.20244,-0.0823507,9.41709,-1.0195,0.180286,-7.60522,-4.05542,0.175293
415,-2.31296e-37,-0.179086,-0.079182,9.41937,-0.866222,0.192401,-5.94238,-4.04321,0.180176
416,-2.31483e-37,-0.197797,-0.0706129,9.39407,-0.842631,0.154082,5.86377,-4.04565,0.177246
417,-2.3167e-37,-0.187791,-0.0997249,9.40907,-0.939479,0.152955,0.672363,-4.04688,0.181641
418,-2.31857e-37,-0.188449,-0.0829371,9.38073,-0.880156,0.211151,-1.05713,-4.04834,0.178955
419,-2.32043e-37,-0.192419,-0.0915564,9.41145,-0.917143,0.15918,4.61426,-4.05249,0.177246
420,-2.3223e-37,-0.207196,-0.0813279,9.35877,-0.819527,0.199317,-2.99341,-4.052,0.179688
421,-2.32417e-37,-0.188127,-0.0771792,9.41057,-0.974212,0.159692,-4.04663,-4.04858,0.178223
422,-2.32604e-37,-0.205773,-0.0595975,9.41882,-0.943321,0.175701,3.2959,-4.04736,0.180664
423,-2.32791e-37,-0.203841,-0.0657776,9.40937,-0.89573,0.175035,-4.2583,-4.04761,0.17627
424,-2.32978e-37,-0.202104,-0.0683597,9.40196,-0.796039,0.109001,-2.41943,-4.0498,0.179688
425,-2.33164e-37,-0.183621,-0.0736099,9.39272,-0.876698,0.252979,-0.997559,-4.05396,0.177734
426,-2.33351e-37,-0.210666,-0.0948252,9.40047,-0.80024,0.236816,-6.20068,-4.04639,0.177246
427,-2.33538e-37,-0.212898,-0.0872503,9.37526,-0.909613,0.192478,6.44946,-4.05176,0.181641
428,-2.33725e-37,-0.198899,-0.0902903,9.41745,-0.858589,0.348366,-3.73462,-4.04712,0.176758
429,-2.33912e-37,-0.204979,-0.0831519,9.39586,-1.00252,0.186331,-2.5293,-4.04639,0.180176
430,-2.34099e-37,-0.196066,-0.0909914,9.41939,-0.873804,0.231104,4.97046,-4.04443,0.178955
431,-2.34285e-37,-0.194901,-0.0685314,9.36025,-0.941195,0.233999,-3.73584,-4.04565,0.178223
432,-2.34472e-37,-0.189472,-0.0868641,9.40514,-0.927927,0.149959,1.30176,-4.04688,0.178223
433,-2.34659e-37,-0.195716,-0.0707774,9.38591,-0.974212,0.100626,1.19409,-4.04492,0.176758
434,-2.34846e-37,-0.181761,-0.101206,9.39166,-0.892041,0.15544,7.33545,-4.04761,0.178711
435,-2.35033e-37,-0.182848,-0.082036,9.38733,-0.958203,0.128596,0.24585,-4.04199,0.176758
436,-2.3522e-37,-0.189536,-0.0665429,9.40842,-0.918245,0.0959637,7.85474,-4.0437,0.177246
437,-2.35406e-37,-0.201159,-0.0574731,9.41074,-0.904976,0.222933,0.356934,-4.04639,0.179688
438,-2.35593e-37,-0.178621,-0.0686744,9.37918,-0.934868,0.147679,-5.9314,-4.05151,0.178223
439,-2.3578e-37,-0.195108,-0.081478,9.40584,-0.851033,0.234511,7.4895,-4.04541,0.180176
440,-2.35967e-37,-0.189901,-0.0750762,9.37515,-0.796526,0.0747551,4.02808,-4.0459,0.176758
441,-2.36154e-37,-0.202604,-0.0850616,9.39099,-0.882077,0.141531,2.51172,-4.04956,0.180176
442,-2.36341e-37,-0.193735,-0.0792893,9.37314,-0.733208,0.237969,4.76489,-4.04736,0.179199
443,-2.36527e-37,-0.195945,-0.0879657,9.40751,-0.901544,0.127213,-6.71899,-4.05127,0.17627
444,-2.36714e-37,-0.198148,-0.0811204,9.39328,-0.896882,0.289735,-2.2124,-4.04785,0.179688
445,-2.36901e-37,-0.178399,-0.0860702,9.40974,-0.880694,0.164379,-6.56787,-4.04663,0.175781
446,-2.37088e-37,-0.180645,-0.0791891,9.39552,-0.957025,0.183334,-5.56494,-4.05127,0.179199
447,-2.37275e-37,-0.201789,-0.0602699,9.37819,-0.901724,0.198754,6.60693,-4.05249,0.175781
448,-2.37462e-37,-0.2091,-0.074368,9.40301,-0.918808,0.248625,2.56055,-4.04688,0.178711
449,-2.37648e-37,-0.209901,-0.0691178,9.41623,-0.879285,0.191274,-4.84302,-4.04199,0.179688
450,-2.37835e-37,-0.205515,-0.0949254,9.43127,-0.78961,0.197806,7.49097,-4.04639,0.178711
451,-2.38022e-37,-0.194851,-0.0791605,9.37368,-0.977516,0.21361,-7.71509,-4.052,0.180664
452,-2.38209e-37,-0.188055,-0.0768501,9.37946,-0.919039,0.249265,-4.04639,-4.04907,0.175293
453,-2.38396e-37,-0.203813,-0.0719218,9.41636,-0.90636,0.0795962,1.77051,-4.04419,0.179199
454,-2.38583e-37,-0.204679,-0.0904047,9.39693,-0.885587,0.227723,5.34204,-4.04761,0.18042
455,-2.38769e-37,-0.172469,-0.0783379,9.38521,-0.841786,0.105057,-7.82349,-4.04907,0.178711
456,-2.38956e-37,-0.166296,-0.100333,9.40049,-0.903978,0.109795,7.70093,-4.04639,0.179199
457,-2.39143e-37,-0.197075,-0.0806126,9.42349,-0.902441,0.182309,-2.42456,-4.0459,0.178223
458,-2.3933e-37,-0.176997,-0.0796612,9.40362,-0.997316,0.279669,-0.368164,-4.05347,0.180664
459,-2.39517e-37,-0.190759,-0.0638677,9.38252,-0.819937,0.143862,5.8186,-4.05127,0.17627
460,-2.39704e-37,-0.196417,-0.0699477,9.39866,-0.963223,0.0938377,1.25635,-4.05249,0.176758
461,-2.3989e-37,-0.192919,-0.0761207,9.4204,-0.86571,0.218425,5.86646,-4.04761,0.178223
462,-2.40077e-37,-0.196982,-0.0733953,9.41326,-0.903491,0.230413,-7.72437,-4.04468,0.177734
463,-2.40264e-37,-0.180903,-0.0767142,9.42979,-0.964376,0.291119,6.75928,-4.04834,0.181641
464,-2.40451e-37,-0.19523,-0.0863992,9.40526,-1.02203,0.160998,6.44629,-4.0498,0.175781
465,-2.40638e-37,-0.201016,-0.0814567,9.38723,-0.844655,0.225085,-1.10938,-4.04858,0.180664
466,-2.40825e-37,-0.192154,-0.0820717,9.3855,-0.891836,0.224317,6.22925,-4.04443,0.177246
467,-2.41011e-37,-0.193756,-0.0944747,9.3866,-0.912405,0.246857,-5.93677,-4.04761,0.17627
468,-2.41198e-37,-0.201545,-0.0922145,9.38306,-0.84883,0.156541,4.96582,-4.04102,0.179688
469,-2.41385e-37,-0.215315,-0.0796541,9.38746,-0.840275,0.179184,7.23169,-4.04858,0.17627
470,-2.41572e-37,-0.197311,-0.0778658,9.38414,-0.864532,0.200726,2.25879,-4.05664,0.178711
471,-2.41759e-37,-0.181625,-0.0789745,9.42466,-0.995677,0.199599,2.04785,-4.05566,0.17334
472,-2.41946e-37,-0.176883,-0.090934,9.36347,-0.897241,0.165301,4.34473,-4.04736,0.179688
473,-2.42132e-37,-0.19779,-0.0919784,9.40179,-0.851135,0.22196,1.09302,-4.04785,0.178223
474,-2.42319e-37,-0.205215,-0.0971786,9.40144,-0.977157,0.143376,7.59814,-4.04785,0.176758
475,-2.42506e-37,-0.211524,-0.0516149,9.40987,-0.856105,0.208231,-0.632568,-4.05225,0.178711
476,-2.42693e-37,-0.189758,-0.0878369,9.4005,-0.895448,0.280437,3.9812,-4.05005,0.177979
477,-2.4288e-37,-0.193106,-0.0650979,9.39649,-0.929438,0.261457,-6.09082,-4.05029,0.182129
478,-2.43067e-37,-0.194393,-0.0801261,9.3809,-0.907384,0.108873,6.39185,-4.0481,0.178467
479,-2.43253e-37,-0.200329,-0.0788458,9.39384,-0.899136,0.0341566,5.60742,-4.05029,0.177734
480,-2.4344e-37,-0.190673,-0.0929941,9.40226,-0.836049,0.134026,0.0998535,-4.05054,0.179688
481,-2.43627e-37,-0.184093,-0.0900972,9.4301,-0.919116,0.176469,4.82056,-4.05005,0.176758
482,-2.43814e-37,-0.192433,-0.0654056,9.39132,-0.981486,0.246012,-2.1582,-4.04907,0.181152
483,-2.44001e-37,-0.214085,-0.0904477,9.42808,-0.82944,0.186997,7.8147,-4.05322,0.176514
484,-2.44188e-37,-0.203448,-0.0795468,9.39225,-0.956026,0.210229,2.93115,-4.04956,0.179199
485,-2.44374e-37,-0.183141,-0.0544546,9.39786,-0.943987,0.270653,1.29834,-4.04443,0.180664
486,-2.44561e-37,-0.199214,-0.0736171,9.40568,-0.823421,0.278516,5.87109,-4.05103,0.178711
487,-2.44748e-37,-0.203856,-0.0988809,9.40587,-0.893783,0.155184,6.91626,-4.0481,0.181152
488,-2.44935e-37,-0.193985,-0.0882446,9.42876,-0.939223,0.139969,-5.2561,-4.04688,0.174805
489,-2.45122e-37,-0.19028,-0.0879156,9.40687,-0.83797,0.115764,2.34351,-4.0415,0.181152
490,-2.45309e-37,-0.207368,-0.0785025,9.40004,-0.99373,0.172115,6.27881,-4.04224,0.178223
491,-2.45495e-37,-0.200838,-0.0708632,9.40803,-1.00054,0.219476,-3.31274,-4.04858,0.177734
492,-2.45682e-37,-0.196424,-0.0575017,9.41089,-1.00961,0.123448,-4.0979,-4.0498,0.177734
493,-2.45869e-37,-0.19764,-0.0783308,9.42608,-0.821602,0.163227,-1.48047,-4.0459,0.175293
494,-2.46056e-37,-0.199721,-0.0798258,9.4297,-0.860613,0.197985,-7.08862,-4.04956,0.179688
495,-2.46243e-37,-0.18249,-0.0930513,9.40336,-0.885638,0.225188,-0.482666,-4.04663,0.175781
496,-2.4643e-37,-0.211874,-0.0947036,9.38649,-0.841299,0.200162,5.34863,-4.05249,0.177734
497,-2.46616e-37,-0.228054,-0.0780374,9.40953,-0.872677,0.154646,0.204102,-4.05005,0.179199
498,-2.46803e-37,-0.198463,-0.0791677,9.37679,-1.02598,0.234614,-1.47144,-4.05273,0.175293
499,-2.4699e-37,-0.196246,-0.0931442,9.37413,-0.856591,0.17232,2.19556,-4.04858,0.181641
500,-2.47177e-37,-0.204585,-0.085126,9.39482,-0.89596,0.114534,5.0791,-4.04736,0.174561
501,-2.47364e-37,-0.207232,-0.0785811,9.41366,-0.915581,0.104775,7.28491,-4.04932,0.180664
502,-2.47551e-37,-0.181131,-0.0817427,9.38077,-0.897471,0.149088,-7.97559,-4.05322,0.178955
503,-2.47737e-37,-0.192411,-0.0916494,9.4186,-0.902466,0.247241,-5.99341,-4.04443,0.178711
504,-2.47924e-37,-0.194493,-0.0876153,9.39322,-0.92662,0.275494,3.13989,-4.04858,0.179688
505,-2.48111e-37,-0.213441,-0.0892889,9.41133,-1.01617,0.109949,7.23706,-4.05298,0.176758
506,-2.48298e-37,-0.187905,-0.0863992,9.39537,-0.888251,0.185665,7.28589,-4.0498,0.180664
507,-2.48485e-37,-0.175073,-0.0876438,9.37897,-0.901391,0.126393,-2.5769,-4.04956,0.177246
508,-2.48672e-37,-0.192497,-0.0777586,9.39055,-0.859972,0.0486286,-3.67847,-4.0498,0.17627
509,-2.48858e-37,-0.213448,-0.075112,9.42545,-0.902799,0.0556982,3.03613,-4.04956,0.178711
510,-2.49045e-37,-0.199171,-0.0675443,9.41519,-0.871806,0.14709,-5.62817,-4.04321,0.17627
511,-2.49232e-37,-0.194314,-0.0891889,9.39547,-0.816607,0.137356,3.14404,-4.05151,0.178223
512,-2.49419e-37,-0.178291,-0.0788029,9.37439,-0.96663,0.111512,1.09473,-4.04932,0.174316
513,-2.49606e-37,-0.202361,-0.0824294,9.38864,-0.940196,0.272881,6.76465,-4.05273,0.179688
514,-2.49793e-37,-0.192276,-0.0741464,9.39125,-0.976799,0.255771,1.56274,-4.04614,0.178223
515,-2.49979e-37,-0.183335,-0.0839601,9.41459,-0.799292,0.242067,-6.88159,-4.04712,0.180176
516,-2.50166e-37,-0.203992,-0.0851045,9.42538,-0.771578,0.298828,-0.845703,-4.0498,0.178223
517,-2.50353e-37,-0.189014,-0.0880514,9.38501,-0.929079,0.176213,-3.62549,-4.05005,0.177002
518,-2.5054e-37,-0.176024,-0.0653557,9.39416,-0.828954,0.308997,-3.05322,-4.04639,0.181641
519,-2.50727e-37,-0.198162,-0.0713353,9.39356,-0.817863,0.247702,6.97217,-4.05078,0.176758
520,-2.50914e-37,-0.200752,-0.0678733,9.40485,-0.826059,0.247831,-0.530273,-4.05029,0.178223
521,-2.511e-37,-0.191538,-0.0733597,9.39546,-0.946369,0.332357,2.09058,-4.04858,0.179199
522,-2.51287e-37,-0.191761,-0.0806483,9.40238,-0.861279,0.158411,3.92871,-4.0498,0.176758
523,-2.51474e-37,-0.217754,-0.0770147,9.3914,-0.931334,0.136357,-3.57202,-4.05078,0.181641
524,-2.51661e-37,-0.19322,-0.0957551,9.39777,-0.936277,0.139892,-4.6748,-4.05005,0.175781
525,-2.51848e-37,-0.196374,-0.0846324,9.42797,-0.945012,0.281411,5.0813,-4.04883,0.176758
526,-2.52035e-37,-0.201789,-0.0834021,9.38768,-0.807694,0.177904,-6.98291,-4.05005,0.177734
527,-2.52221e-37,-0.191296,-0.0805267,9.39175,-0.933255,0.0987045,-4.2583,-4.04761,0.177246
528,-2.52408e-37,-0.19367,-0.0771076,9.40122,-0.833052,0.247088,0.209229,-4.05396,0.178711
529,-2.52595e-37,-0.188613,-0.07366,9.39241,-0.839097,0.256078,-6.25293,-4.04663,0.175781
530,-2.52782e-37,-0.190989,-0.076235,9.41063,-0.997495,0.106389,4.29321,-4.0481,0.181152
531,-2.52969e-37,-0.189215,-0.076986,9.40334,-0.95244,0.119862,-0.00219727,-4.05273,0.178223
532,-2.53156e-37,-0.215029,-0.0801333,9.40843,-0.933716,0.166659,-2.83984,-4.04932,0.178223
533,-2.53342e-37,-0.189987,-0.0721936,9.402,-0.909177,0.206668,-1.78296,-4.05518,0.178711
534,-2.53529e-37,-0.185251,-0.0944676,9.39135,-1.00316,0.117249,0.783691,-4.05176,0.175781
535,-2.53716e-37,-0.197597,-0.0927509,9.33818,-0.891222,0.00454653,7.07324,-4.04785,0.179199
536,-2.53903e-37,-0.211352,-0.093316,9.39497,-0.945498,0.282717,6.97412,-4.05225,0.175293
537,-2.5409e-37,-0.202776,-0.080398,9.35754,-0.843887,0.0579778,0.257812,-4.05127,0.180176
538,-2.54277e-37,-0.189772,-0.0632097,9.39389,-0.916272,0.247933,6.49731,-4.04858,0.178711
539,-2.54463e-37,-0.190859,-0.0802048,9.3817,-1.01248,0.19299,-2.1145,-4.04248,0.174805
540,-2.5465e-37,-0.199765,-0.0656488,9.40845,-0.915734,0.281462,-3.36304,-4.05029,0.181152
541,-2.54837e-37,-0.19008,-0.077966,9.39122,-0.951466,0.190429,6.92603,-4.05542,0.175781
542,-2.55024e-37,-0.190601,-0.078524,9.40594,-0.840352,0.15316,5.98022,-4.05444,0.181152
543,-2.55211e-37,-0.187054,-0.0738245,9.37886,-0.917015,0.119375,-5.15503,-4.04395,0.178223
544,-2.55397e-37,-0.206367,-0.0951471,9.38634,-0.967603,0.21507,7.43799,-4.04614,0.17627
545,-2.55584e-37,-0.197969,-0.0604773,9.40375,-0.896447,0.150189,6.27954,-4.04272,0.177734
546,-2.55771e-37,-0.192955,-0.0791605,9.36947,-0.881719,0.246063,4.87012,-4.04785,0.174561
547,-2.55958e-37,-0.206245,-0.0821862,9.38386,-0.795501,0.160076,6.07617,-4.04761,0.179199
548,-2.56145e-37,-0.210945,-0.0737744,9.40103,-0.875956,0.19527,-2.83398,-4.05371,0.174316
549,-2.56332e-37,-0.201066,-0.0931086,9.40529,-0.995139,0.120169,-5.14307,-4.05273,0.180664
550,-2.56518e-37,-0.184622,-0.0900972,9.38376,-0.929412,0.188201,7.54688,-4.04907,0.176758
551,-2.56705e-37,-0.197897,-0.0911059,9.39463,-0.893501,0.249803,6.44556,-4.04932,0.179199
552,-2.56892e-37,-0.186289,-0.0845395,9.42288,-0.843784,0.127649,3.08569,-4.04736,0.178711
553,-2.57079e-37,-0.191939,-0.0760133,9.3868,-0.97498,0.0758309,-1.48096,-4.04541,0.173584
554,-2.57266e-37,-0.188677,-0.0740606,9.39441,-0.959432,0.201751,4.71484,-4.04956,0.179199
555,-2.57453e-37,-0.193663,-0.0858127,9.38253,-0.913813,0.151367,6.39551,-4.05103,0.17627
556,-2.57639e-37,-0.18028,-0.101477,9.38895,-0.967424,0.241427,5.87158,-4.05151,0.179199
557,-2.57826e-37,-0.192926,-0.081993,9.39585,-0.893809,0.259895,-0.269287,-4.04907,0.177734
558,-2.58013e-37,-0.183442,-0.0958696,9.40052,-0.840121,0.22237,-1.00464,-4.04858,0.175293
559,-2.582e-37,-0.186332,-0.0868998,9.41042,-0.951774,0.133975,1.40063,-4.04248,0.180176
560,-2.58387e-37,-0.189393,-0.0699548,9.40991,-1.01035,0.144247,-2.47168,-4.05005,0.175293
561,-2.58574e-37,-0.196625,-0.093831,9.36036,-0.816454,0.196551,0.570068,-4.04883,0.179199
562,-2.5876e-37,-0.179808,-0.0838885,9.39811,-0.86051,0.0615382,-3.72656,-4.05298,0.177979
563,-2.58947e-37,-0.220143,-0.0852118,9.39211,-0.83236,0.110077,-7.97607,-4.05273,0.177734
564,-2.59134e-37,-0.186038,-0.0747901,9.38787,-0.917758,0.174625,2.04028,-4.05029,0.179199
565,-2.59321e-37,-0.199457,-0.0692468,9.38454,-0.92534,0.232155,5.91479,-4.04443,0.176758
566,-2.59508e-37,-0.197411,-0.0822005,9.39469,-0.946344,0.14458,-6.82568,-4.0498,0.179199
567,-2.59695e-37,-0.189193,-0.0775011,9.4191,-0.919013,0.161536,-5.14648,-4.05029,0.174316
568,-2.59881e-37,-0.18229,-0.0669935,9.39069,-0.835459,0.169349,6.3938,-4.04956,0.178711
569,-2.60068e-37,-0.217254,-0.0703553,9.39193,-0.733566,0.146501,-5.08862,-4.05444,0.178711
570,-2.60255e-37,-0.196052,-0.0846253,9.36544,-0.841761,0.0990631,-4.88257,-4.05151,0.174805
571,-2.60442e-37,-0.19435,-0.0669363,9.40915,-0.858538,0.160435,2.77759,-4.05225,0.181152
572,-2.60629e-37,-0.190187,-0.0836096,9.42268,-0.882001,0.123627,2.56763,-4.05225,0.17627
573,-2.60816e-37,-0.193906,-0.0868856,9.42248,-0.84988,0.111179,6.2334,-4.04736,0.177734
574,-2.61002e-37,-0.199586,-0.0785597,9.39007,-0.952542,0.198959,5.39258,-4.04639,0.178711
575,-2.61189e-37,-0.191617,-0.0964132,9.39621,-0.846679,0.153237,6.9729,-4.05127,0.175781
576,-2.61376e-37,-0.178893,-0.0934376,9.37648,-0.8528,0.196397,0.938721,-4.05005,0.180664
577,-2.61563e-37,-0.195773,-0.101806,9.40875,-0.909177,0.299879,-6.52148,-4.04199,0.175781
578,-2.6175e-37,-0.205744,-0.0596118,9.38629,-0.805824,0.163585,-7.14062,-4.0498,0.178711
579,-2.61937e-37,-0.208627,-0.0775011,9.38677,-0.831899,0.210152,-1.78931,-4.05029,0.174805
580,-2.62123e-37,-0.186611,-0.0877225,9.40285,-0.831233,0.186945,6.91943,-4.05054,0.177246
581,-2.6231e-37,-0.189379,-0.0704555,9.37669,-0.867042,0.111537,-7.29224,-4.05396,0.179688
582,-2.62497e-37,-0.187347,-0.0871574,9.41223,-0.868476,0.215685,-2.94019,-4.05273,0.17627
583,-2.62684e-37,-0.19887,-0.0856696,9.41596,-0.908639,0.0512413,2.55908,-4.0459,0.179199
584,-2.62871e-37,-0.207218,-0.0972786,9.40034,-0.901083,0.173319,3.19141,-4.04785,0.175293
585,-2.63058e-37,-0.196096,-0.0979653,9.37846,-0.866248,0.106952,1.98535,-4.0481,0.179688
586,-2.63244e-37,-0.203219,-0.0734096,9.37304,-0.856924,0.133565,2.97827,-4.04541,0.178223
587,-2.63431e-37,-0.186038,-0.0934018,9.39197,-0.883256,0.178672,4.39819,-4.0481,0.177734
588,-2.63618e-37,-0.18837,-0.0886953,9.38504,-0.899034,0.230003,-5.55664,-4.05713,0.180176
589,-2.63805e-37,-0.219571,-0.0692108,9.40099,-0.8559,0.155209,1.08936,-4.04492,0.17627
590,-2.63992e-37,-0.18425,-0.0784809,9.39159,-0.870525,0.18838,-3.20728,-4.04907,0.177734
591,-2.64179e-37,-0.182977,-0.0814637,9.41533,-0.864096,0.157028,-6.62305,-4.04443,0.174805
592,-2.64365e-37,-0.183542,-0.0644542,9.37083,-0.828339,0.152187,5.55322,-4.04858,0.175293
593,-2.64552e-37,-0.18523,-0.0764353,9.39015,-0.824906,0.137561,-0.214355,-4.05127,0.179688
594,-2.64739e-37,-0.186074,-0.0690464,9.39816,-0.882334,0.106568,-7.67139,-4.04541,0.17627
595,-2.64926e-37,-0.210773,-0.093509,9.41619,-0.875162,0.238686,-4.78369,-4.04712,0.178711
596,-2.65113e-37,-0.200902,-0.0784452,9.40474,-0.911662,0.12793,-4.41016,-4.05176,0.175781
597,-2.653e-37,-0.184736,-0.0743109,9.39618,-0.952926,0.148703,2.24683,-4.04785,0.181641
598,-2.65486e-37,-0.207769,-0.0814637,9.35866,-1.02109,0.111588,5.8186,-4.05127,0.177734
599,-2.65673e-37,-0.197168,-0.0887883,9.39505,-0.909664,0.130492,-5.25464,-4.04785,0.178223
600,-2.6586e-37,-0.210909,-0.0830588,9.41196,-0.819784,0.228645,-6.71704,-4.05273,0.180176
601,-2.66047e-37,-0.191996,-0.0679234,9.408,-0.877954,0.103469,-7.19189,-4.05054,0.175293
602,-2.66234e-37,-0.18709,-0.0858055,9.39017,-0.921754,0.151803,-0.00952148,-4.04736,0.178223
603,-2.66421e-37,-0.20563,-0.0937952,9.41326,-0.835127,0.279208,-3.98291,-4.05762,0.177734
604,-2.66607e-37,-0.198012,-0.0760204,9.41303,-0.830977,0.220244,-7.50415,-4.05249,0.175781
605,-2.66794e-37,-0.206996,-0.0556277,9.41282,-0.807284,0.102675,1.67285,-4.05005,0.178223
606,-2.66981e-37,-0.208412,-0.0584387,9.38695,-0.827161,0.122398,-5.62329,-4.04663,0.177246
607,-2.67168e-37,-0.184586,-0.0642898,9.39604,-0.922522,0.184487,-4.10425,-4.04492,0.180176
608,-2.67355e-37,-0.192197,-0.0690607,9.41034,-0.96371,0.279567,3.87378,-4.0481,0.174316
609,-2.67542e-37,-0.201531,-0.069776,9.39557,-0.889506,0.274853,4.55322,-4.04639,0.181152
610,-2.67728e-37,-0.192119,-0.0792391,9.39133,-0.935483,0.149421,5.92554,-4.05273,0.178711
611,-2.67915e-37,-0.206216,-0.0678233,9.40504,-0.877492,0.301953,-2.52637,-4.04834,0.175781
612,-2.68102e-37,-0.191439,-0.0696615,9.37944,-0.864941,0.183564,-6.46606,-4.04419,0.180664
613,-2.68289e-37,-0.201595,-0.0609709,9.38562,-0.802801,0.176751,-5.09766,-4.04761,0.174561
614,-2.68476e-37,-0.197454,-0.0804981,9.41171,-0.82629,0.184435,-2.83911,-4.0498,0.181152
615,-2.68663e-37,-0.198541,-0.0689033,9.41275,-0.999595,0.207258,-3.41406,-4.05151,0.175781
616,-2.68849e-37,-0.186139,-0.0676587,9.41311,-0.902723,0.178083,6.91309,-4.04565,0.179199
617,-2.69036e-37,-0.189979,-0.0740034,9.42732,-0.899444,0.164226,0.465576,-4.04932,0.179199
618,-2.69223e-37,-0.189114,-0.0916421,9.42597,-0.913711,0.198241,1.8291,-4.04932,0.178711
619,-2.6941e-37,-0.190502,-0.0936379,9.38912,-0.960483,0.185818,-3.4209,-4.04614,0.177246
620,-2.69597e-37,-0.20038,-0.0935878,9.4093,-0.893091,0.138125,0.773682,-4.04443,0.175781
621,-2.69784e-37,-0.19583,-0.0811276,9.40314,-0.910996,0.181669,-3.57983,-4.04492,0.181641
622,-2.6997e-37,-0.187483,-0.0723939,9.4004,-0.908896,0.296165,-4.77905,-4.05054,0.176758
623,-2.70157e-37,-0.196532,-0.0815281,9.39962,-0.873061,0.248368,5.03345,-4.05249,0.177734
624,-2.70344e-37,-0.193449,-0.0840387,9.41791,-0.930335,0.163278,-6.30542,-4.04688,0.178223
625,-2.70531e-37,-0.190438,-0.0695828,9.38617,-0.823293,0.190967,7.86279,-4.05005,0.177246
626,-2.70718e-37,-0.194007,-0.0570725,9.41851,-0.922112,0.153801,0.622559,-4.04907,0.180664
627,-2.70905e-37,-0.204708,-0.0808342,9.37052,-0.879465,0.267374,7.07104,-4.0459,0.17627
628,-2.71091e-37,-0.193163,-0.0791462,9.41133,-0.827314,0.205823,-0.947266,-4.05225,0.178711
629,-2.71278e-37,-0.170617,-0.0612784,9.40035,-0.904336,0.119401,1.51196,-4.04736,0.177246
630,-2.71465e-37,-0.185537,-0.0788816,9.36386,-0.895294,0.156234,-4.62964,-4.04443,0.177734
631,-2.71652e-37,-0.194178,-0.0721579,9.39382,-0.869245,0.187432,-7.61182,-4.05054,0.181641
632,-2.71839e-37,-0.203763,-0.0753695,9.41004,-0.877979,0.215505,4.34497,-4.04736,0.176758
633,-2.72026e-37,-0.18596,-0.0712781,9.40521,-0.927082,0.200572,3.03687,-4.05005,0.180664
634,-2.72212e-37,-0.191603,-0.0775011,9.41572,-0.998187,0.22447,2.61426,-4.04761,0.179199
635,-2.72399e-37,-0.18621,-0.104703,9.39887,-0.841556,0.285663,1.72852,-4.05225,0.178711
636,-2.72586e-37,-0.175516,-0.0767858,9.39046,-0.985533,0.178621,7.02393,-4.05054,0.179688
637,-2.72773e-37,-0.189114,-0.105118,9.41554,-0.883409,0.157054,4.72021,-4.05347,0.177246
638,-2.7296e-37,-0.191775,-0.0895607,9.38934,-0.787689,0.201264,1.67432,-4.05103,0.179688
639,-2.73147e-37,-0.201911,-0.0855408,9.40802,-0.921011,0.211612,4.4021,-4.05103,0.175293
640,-2.73333e-37,-0.191753,-0.0763709,9.40168,-0.989401,0.248035,-1.4751,-4.0498,0.176758
641,-2.7352e-37,-0.205422,-0.0742322,9.41466,-0.899879,0.185818,-6.46289,-4.04663,0.177246
642,-2.73707e-37,-0.19425,-0.0797399,9.40891,-0.910074,0.205362,5.28418,-4.04395,0.178223
643,-2.73894e-37,-0.200938,-0.0914777,9.39688,-0.754954,0.220244,5.34058,-4.04663,0.181152
644,-2.74081e-37,-0.180323,-0.0844822,9.42725,-0.953797,0.226904,-1.05981,-4.04639,0.175293
645,-2.74268e-37,-0.185959,-0.0627091,9.43284,-0.91699,0.21069,6.44043,-4.04541,0.181152
646,-2.74454e-37,-0.201968,-0.0908553,9.38984,-0.899802,0.162356,2.51489,-4.052,0.179688
647,-2.74641e-37,-0.205308,-0.0769646,9.40396,-0.91325,0.177929,-6.61523,-4.05029,0.177734
648,-2.74828e-37,-0.191989,-0.0856696,9.39429,-0.90677,0.336405,-0.901367,-4.04712,0.180664
649,-2.75015e-37,-0.200694,-0.0723868,9.38992,-0.868246,0.20362,-4.98779,-4.05103,0.17627
650,-2.75202e-37,-0.185295,-0.0842247,9.37631,-0.924956,0.156618,-4.73389,-4.04492,0.180176
651,-2.75389e-37,-0.185795,-0.0675372,9.42383,-0.899085,0.202698,4.24146,-4.04834,0.175781
652,-2.75575e-37,-0.194657,-0.0711279,9.40143,-0.882538,0.235997,-3.62427,-4.05103,0.178223
653,-2.75762e-37,-0.202683,-0.0954547,9.40663,-0.953516,0.149267,-4.93457,-4.05176,0.179199
654,-2.75949e-37,-0.187075,-0.0813207,9.38981,-0.891324,0.180824,-3.37012,-4.04492,0.17627
655,-2.76136e-37,-0.179443,-0.0716071,9.41844,-0.977952,0.147448,-7.24414,-4.05078,0.179199
656,-2.76323e-37,-0.202661,-0.052509,9.39786,-0.80252,0.21507,-0.429199,-4.04736,0.175781
657,-2.7651e-37,-0.201074,-0.0758487,9.37936,-0.887892,0.26722,7.38525,-4.0459,0.180176
658,-2.76696e-37,-0.19907,-0.0666646,9.40971,-0.914146,0.188405,5.66504,-4.05396,0.179199
659,-2.76883e-37,-0.195645,-0.0648977,9.39899,-0.890146,0.233512,-3.31494,-4.04712,0.178223
660,-2.7707e-37,-0.199936,-0.0965562,9.42747,-0.86863,0.177955,0.0959473,-4.04761,0.178711
661,-2.77257e-37,-0.201331,-0.090884,9.36921,-0.875418,0.0685565,7.34277,-4.05347,0.177734
662,-2.77444e-37,-0.202776,-0.105097,9.39009,-0.772525,0.179236,5.66357,-4.05298,0.178223
663,-2.77631e-37,-0.179715,-0.0793751,9.41852,-0.895499,0.236816,5.76367,-4.04907,0.178223
664,-2.77817e-37,-0.195537,-0.0943388,9.41523,-0.997444,0.11643,-1.37646,-4.04492,0.177246
665,-2.78004e-37,-0.177805,-0.0783093,9.3784,-0.925852,0.235151,3.8147,-4.04297,0.179199
666,-2.78191e-37,-0.181904,-0.08082,9.38925,-0.901263,0.0824138,-7.40698,-4.04663,0.172852
667,-2.78378e-37,-0.191388,-0.0869715,9.41625,-0.935893,0.209281,-1.1582,-4.05127,0.180664
668,-2.78565e-37,-0.185945,-0.0836239,9.38915,-0.809,0.169912,-7.25073,-4.0459,0.177734
669,-2.78752e-37,-0.17553,-0.106277,9.39102,-0.917399,0.15918,2.09082,-4.04858,0.178223
670,-2.78938e-37,-0.192025,-0.0794681,9.37308,-0.813713,0.232641,0.731689,-4.052,0.178223
671,-2.79125e-37,-0.191768,-0.0982801,9.40642,-0.90326,0.124063,-3.46826,-4.05029,0.17627
672,-2.79312e-37,-0.195637,-0.0948325,9.39206,-0.874137,0.174369,5.03369,-4.05249,0.181152
673,-2.79499e-37,-0.176847,-0.08288,9.40453,-0.915222,0.194553,-3.62891,-4.04761,0.175293
674,-2.79686e-37,-0.198441,-0.0696901,9.41105,-0.917784,0.181131,-1.21826,-4.04565,0.180176
675,-2.79873e-37,-0.190781,-0.0798829,9.41401,-0.940683,0.214302,-2.89282,-4.04858,0.174316
676,-2.80059e-37,-0.213841,-0.0926079,9.39977,-0.859844,0.118453,-1.7417,-4.04663,0.179199
677,-2.80246e-37,-0.189758,-0.0969353,9.39245,-0.972086,0.188073,-4.05225,-4.04468,0.178223
678,-2.80433e-37,-0.2042,-0.0790031,9.39215,-0.929028,0.217913,-6.83032,-4.04639,0.178711
679,-2.8062e-37,-0.18764,-0.087086,9.3991,-0.920422,0.342911,-0.692627,-4.04663,0.179199
680,-2.80807e-37,-0.187726,-0.0913275,9.39145,-0.879157,0.275904,4.03369,-4.05029,0.176758
681,-2.80994e-37,-0.172076,-0.0860988,9.3941,-0.980743,0.146962,-2.37134,-4.04663,0.179688
682,-2.8118e-37,-0.185316,-0.0847254,9.39415,-0.918552,0.0765481,1.29565,-4.04248,0.177734
683,-2.81367e-37,-0.200601,-0.0800975,9.39814,-0.975364,0.157694,2.56787,-4.05225,0.17627
684,-2.81554e-37,-0.187376,-0.0612212,9.38914,-0.862201,0.096143,-0.589111,-4.04565,0.178711
685,-2.81741e-37,-0.207046,-0.0478597,9.39572,-0.866888,0.145655,-6.573,-4.04272,0.174316
686,-2.81928e-37,-0.189429,-0.0712209,9.41046,-0.912123,0.185972,-5.09351,-4.05054,0.179688
687,-2.82115e-37,-0.188928,-0.0837384,9.41309,-0.873369,0.121578,5.50049,-4.04834,0.176758
688,-2.82301e-37,-0.198077,-0.0588536,9.40249,-0.778263,0.29514,-6.66626,-4.05151,0.178223
689,-2.82488e-37,-0.19568,-0.075019,9.40848,-0.880233,0.119273,0.625,-4.05103,0.178711
690,-2.82675e-37,-0.189114,-0.0918711,9.40343,-0.888609,0.0879465,1.35645,-4.04858,0.175781
691,-2.82862e-37,-0.218069,-0.090183,9.36834,-0.923393,0.0948111,-5.35815,-4.04883,0.180664
692,-2.83049e-37,-0.19598,-0.083581,9.42086,-0.875059,0.15544,2.8811,-4.05127,0.175293
693,-2.83236e-37,-0.195559,-0.086063,9.39499,-0.859383,0.201776,1.29907,-4.04492,0.179199
694,-2.83422e-37,-0.20628,-0.0695758,9.39464,-0.918808,0.197166,-2.73633,-4.04834,0.179688
695,-2.83609e-37,-0.188113,-0.0738388,9.40196,-0.760077,0.0802622,1.7749,-4.04761,0.17627
696,-2.83796e-37,-0.185423,-0.084654,9.39005,-0.811869,0.23966,1.87891,-4.04712,0.179688
697,-2.83983e-37,-0.196074,-0.0780947,9.41818,-0.975774,0.228184,4.24048,-4.04785,0.176758
698,-2.8417e-37,-0.182662,-0.0859129,9.39937,-0.795373,0.198267,-0.678223,-4.05737,0.179688
699,-2.84357e-37,-0.188971,-0.103738,9.39585,-0.822857,0.184025,5.2876,-4.04639,0.17627
700,-2.84543e-37,-0.19603,-0.0608207,9.39252,-0.913557,0.0908665,4.08618,-4.05005,0.178711
701,-2.8473e-37,-0.191889,-0.0480099,9.40309,-0.829901,0.319807,-1.6333,-4.04907,0.178223
702,-2.84917e-37,-0.1948,-0.089568,9.39925,-0.877979,0.167735,2.92603,-4.04565,0.178223
703,-2.85104e-37,-0.193155,-0.0822648,9.36879,-0.879055,0.181336,-1.84277,-4.04956,0.178711
704,-2.85291e-37,-0.19709,-0.0687101,9.40507,-0.905489,0.195449,-4.62646,-4.04688,0.174805
705,-2.85478e-37,-0.182698,-0.0948252,9.40658,-1.0436,0.0711435,-6.09644,-4.0459,0.180664
706,-2.85664e-37,-0.174601,-0.0827083,9.40613,-0.847344,0.119298,-7.82153,-4.05054,0.17627
707,-2.85851e-37,-0.165595,-0.085734,9.41343,-0.927748,0.162381,0.361816,-4.05029,0.17627
708,-2.86038e-37,-0.204271,-0.0824794,9.39306,-0.7506,0.219655,-3.8374,-4.04858,0.180664
709,-2.86225e-37,-0.180867,-0.0612212,9.41022,-0.886176,0.137075,0.575439,-4.05322,0.17627
710,-2.86412e-37,-0.187984,-0.0687817,9.41319,-0.76356,0.113202,-1.10522,-4.052,0.181152
711,-2.86598e-37,-0.178857,-0.0863491,9.38047,-0.935457,0.232155,1.4646,-4.05103,0.177734
712,-2.86785e-37,-0.188027,-0.0629879,9.36612,-0.889403,0.246883,0.776611,-4.04688,0.176758
713,-2.86972e-37,-0.190666,-0.0910843,9.39477,-1.05538,0.0346433,1.66699,-4.04565,0.181152
714,-2.87159e-37,-0.188627,-0.0935307,9.38733,-0.890146,0.349647,4.34546,-4.04785,0.175781
715,-2.87346e-37,-0.191538,-0.0935306,9.41132,-1.04875,0.186817,1.25464,-4.05103,0.181152
716,-2.87533e-37,-0.200301,-0.0870859,9.43769,-0.85175,0.11853,-2.58032,-4.04712,0.174805
717,-2.87719e-37,-0.190072,-0.0721078,9.41179,-0.941887,0.0929156,-5.5105,-4.05249,0.178711
718,-2.87906e-37,-0.196224,-0.0874364,9.39929,-1.02552,0.199778,-1.95215,-4.04614,0.180664
719,-2.88093e-37,-0.202719,-0.0832376,9.41261,-0.929336,0.175445,-7.5127,-4.04614,0.176758
720,-2.8828e-37,-0.204414,-0.0850829,9.3978,-0.916221,0.243041,-4.11108,-4.04004,0.179199
721,-2.88467e-37,-0.192312,-0.0822934,9.40387,-0.857821,0.147807,-7.82617,-4.04712,0.177246
722,-2.88654e-37,-0.204392,-0.0923004,9.38995,-0.809461,0.16671,1.93311,-4.04834,0.179199
723,-2.8884e-37,-0.1995,-0.0688461,9.40712,-0.832642,0.0832847,-2.68262,-4.04907,0.176758
724,-2.89027e-37,-0.195616,-0.0730162,9.40319,-0.788304,0.0855131,-5.56885,-4.04834,0.175781
725,-2.89214e-37,-0.189143,-0.0700549,9.4239,-0.88825,0.0270871,-2.67993,-4.05103,0.178711
726,-2.89401e-37,-0.20681,-0.0768788,9.41021,-0.880412,0.116814,-1.15723,-4.05225,0.175781
727,-2.89588e-37,-0.197168,-0.0756842,9.37379,-0.915863,0.131849,-4.47363,-4.0437,0.179199
728,-2.89775e-37,-0.202054,-0.0733381,9.40901,-0.86781,0.155081,-1.37549,-4.0459,0.176758
729,-2.89961e-37,-0.18611,-0.0907195,9.39846,-0.892682,0.215659,-5.31372,-4.04272,0.179688
730,-2.90148e-37,-0.189665,-0.0924576,9.38178,-0.896933,0.129775,2.56348,-4.04932,0.177246
731,-2.90335e-37,-0.187919,-0.0773866,9.40547,-0.92598,0.205004,5.29028,-4.04834,0.176758
732,-2.90522e-37,-0.188499,-0.0806483,9.4255,-0.895704,0.192453,-1.63574,-4.04712,0.181641
733,-2.90709e-37,-0.193956,-0.0805195,9.40714,-0.896959,0.180439,-7.72046,-4.04761,0.175293
734,-2.90896e-37,-0.18699,-0.0846467,9.42351,-0.863174,0.170014,-7.20117,-4.0437,0.179199
735,-2.91082e-37,-0.191059,-0.0846682,9.42723,-0.801802,0.0623835,1.24756,-4.04565,0.17627
736,-2.91269e-37,-0.19101,-0.0904978,9.4378,-0.929233,0.162407,-4.46753,-4.0481,0.177246
737,-2.91456e-37,-0.217668,-0.0719863,9.40254,-0.945652,0.100344,1.57202,-4.05298,0.177246
738,-2.91643e-37,-0.185524,-0.06351,9.40398,-0.925391,0.184461,-0.58374,-4.04956,0.175293
739,-2.9183e-37,-0.176546,-0.0931086,9.41786,-0.917502,0.227493,6.71118,-4.05151,0.181641
740,-2.92017e-37,-0.20538,-0.0736242,9.39003,-0.830106,0.197499,4.76245,-4.0459,0.176758
741,-2.92203e-37,-0.194657,-0.0791963,9.4063,-0.729109,0.0787254,-6.77368,-4.04956,0.178711
742,-2.9239e-37,-0.186103,-0.0929153,9.39228,-0.933024,0.177673,-1.58325,-4.04736,0.177246
743,-2.92577e-37,-0.205351,-0.0598621,9.38434,-0.904413,0.126163,1.03711,-4.04517,0.175781
744,-2.92764e-37,-0.195659,-0.104703,9.42247,-0.8486,0.148934,0.571533,-4.05029,0.180664
745,-2.92951e-37,-0.205144,-0.0668433,9.37469,-0.817094,0.169016,-6.99194,-4.04321,0.176758
746,-2.93138e-37,-0.202461,-0.0912846,9.40735,-0.887098,0.108387,-7.09595,-4.0437,0.180176
747,-2.93324e-37,-0.193227,-0.0901687,9.39115,-0.865018,0.244603,0.0427246,-4.04688,0.175781
748,-2.93511e-37,-0.200487,-0.070899,9.38388,-0.901109,0.159308,7.75439,-4.04712,0.177246
749,-2.93698e-37,-0.197211,-0.0786169,9.41455,-0.934612,0.241273,0.468994,-4.05176,0.180176
750,-2.93885e-37,-0.201309,-0.0781949,9.41282,-0.941733,0.143657,-4.09961,-4.04834,0.175781
751,-2.94072e-37,-0.190881,-0.0911272,9.3897,-0.862611,0.180004,-6.19897,-4.04785,0.179199
752,-2.94259e-37,-0.211288,-0.0703195,9.39344,-0.786818,0.176905,-0.114502,-4.04736,0.175293
753,-2.94445e-37,-0.191403,-0.0807914,9.4296,-0.944602,0.21384,0.307129,-4.04858,0.179688
754,-2.94632e-37,-0.190187,-0.0785168,9.4318,-0.813841,0.175112,7.60352,-4.05225,0.179688
755,-2.94819e-37,-0.182254,-0.0844965,9.41302,-0.88241,0.168093,-5.19751,-4.05151,0.17627
756,-2.95006e-37,-0.169808,-0.0798043,9.40091,-0.91868,0.190506,-1.16479,-4.04639,0.178711
757,-2.95193e-37,-0.213677,-0.0888955,9.4068,-0.855234,0.197832,-2.47363,-4.04858,0.177246
758,-2.9538e-37,-0.19744,-0.077079,9.36418,-0.837381,0.0311341,4.55859,-4.05029,0.181152
759,-2.95566e-37,-0.184329,-0.0943961,9.40691,-0.814738,0.28241,4.82202,-4.05151,0.177246
760,-2.95753e-37,-0.201066,-0.0851117,9.36351,-0.837637,0.249162,4.87134,-4.04883,0.17627
761,-2.9594e-37,-0.190917,-0.0669935,9.4006,-0.945934,0.158386,0.308838,-4.05005,0.181641
762,-2.96127e-37,-0.204686,-0.0906051,9.42755,-0.945806,0.241376,6.4978,-4.04907,0.175293
763,-2.96314e-37,-0.19111,-0.0701336,9.38764,-0.900776,0.159743,-6.36011,-4.04468,0.177734
764,-2.96501e-37,-0.19214,-0.0712994,9.4226,-0.866145,0.207744,1.45215,-4.04175,0.175293
765,-2.96687e-37,-0.188692,-0.0877225,9.39346,-0.906949,0.155338,3.93384,-4.05371,0.178711
766,-2.96874e-37,-0.194507,-0.0658562,9.39758,-0.835767,0.244962,4.81787,-4.0481,0.179688
767,-2.97061e-37,-0.199035,-0.0871073,9.41016,-0.833487,0.187074,1.67114,-4.04858,0.178223
768,-2.97248e-37,-0.190752,-0.0745826,9.39143,-0.888481,0.124088,3.45435,-4.04858,0.179688
769,-2.97435e-37,-0.194142,-0.0599909,9.39669,-0.873548,0.191582,-5.98462,-4.05127,0.175293
770,-2.97622e-37,-0.213541,-0.0762851,9.40218,-1.01204,0.29911,-0.481445,-4.04761,0.180664
771,-2.97808e-37,-0.194936,-0.0852977,9.40168,-0.811715,0.16835,4.92627,-4.05054,0.178711
772,-2.97995e-37,-0.211023,-0.0839815,9.36485,-0.907666,0.0663537,-4.36011,-4.05005,0.177246
773,-2.98182e-37,-0.205165,-0.0740105,9.38633,-0.834973,0.221294,-2.89233,-4.04907,0.179688
774,-2.98369e-37,-0.180724,-0.0918711,9.40706,-1.02649,0.141429,-7.44897,-4.05469,0.177734
775,-2.98556e-37,-0.211374,-0.0892532,9.36095,-0.91138,0.263686,-0.840332,-4.05371,0.180176
776,-2.98743e-37,-0.17689,-0.0760704,9.39245,-0.915248,0.140532,-7.1438,-4.04736,0.17627
777,-2.98929e-37,-0.179665,-0.0656416,9.38439,-0.881283,0.186356,-4.51855,-4.04932,0.178711
778,-2.99116e-37,-0.1792,-0.0848113,9.41567,-0.960098,0.0731158,2.29883,-4.04712,0.179688
779,-2.99303e-37,-0.179315,-0.0890958,9.4264,-0.894808,0.173319,4.23608,-4.04443,0.176758
780,-2.9949e-37,-0.198148,-0.0800832,9.40139,-0.916298,0.123601,4.24048,-4.04785,0.180664
781,-2.99677e-37,-0.225393,-0.0844536,9.39143,-0.897497,0.224342,-1.89673,-4.04834,0.173828
782,-2.99864e-37,-0.190179,-0.0751836,9.40779,-0.855695,0.0926083,2.40283,-4.04663,0.181641
783,-3.0005e-37,-0.180337,-0.0813636,9.39268,-0.964606,0.224675,3.08423,-4.04639,0.175781
784,-3.00237e-37,-0.18817,-0.0848256,9.40705,-0.972624,0.0619736,-7.30273,-4.04614,0.175781
785,-3.00424e-37,-0.210215,-0.0636531,9.40354,-0.945677,0.191863,6.34106,-4.04932,0.180176
786,-3.00611e-37,-0.198677,-0.0783022,9.41703,-0.928157,0.15585,7.55078,-4.052,0.175293
787,-3.00798e-37,-0.194887,-0.0797684,9.40418,-0.835383,0.306897,5.60596,-4.04883,0.180176
788,-3.00985e-37,-0.188949,-0.0668577,9.39838,-0.907564,0.154646,-4.3645,-4.04663,0.177246
789,-3.01171e-37,-0.200673,-0.0834951,9.39471,-0.90577,0.267425,-7.4585,-4.04736,0.180664
790,-3.01358e-37,-0.22618,-0.0735312,9.40838,-0.968525,0.235408,1.98364,-4.04712,0.179688
791,-3.01545e-37,-0.192698,-0.0934877,9.3664,-0.964811,0.223651,2.71899,-4.04761,0.175781
792,-3.01732e-37,-0.184372,-0.075441,9.39989,-0.943654,0.29619,0.676514,-4.05029,0.181152
793,-3.01919e-37,-0.186103,-0.0878941,9.41707,-0.995446,0.259408,6.17725,-4.04468,0.173828
794,-3.02106e-37,-0.175531,-0.0963846,9.37043,-1.02424,0.220859,-4.98926,-4.05005,0.179688
795,-3.02292e-37,-0.174529,-0.0790318,9.40374,-0.874906,0.0986788,7.18408,-4.05225,0.17334
796,-3.02479e-37,-0.208656,-0.0929583,9.4092,-0.881309,0.159948,-2.89697,-4.04565,0.177246
797,-3.02666e-37,-0.206882,-0.0872933,9.38049,-0.791608,0.314376,-7.92725,-4.05005,0.178711
798,-3.02853e-37,-0.183749,-0.0903833,9.40089,-0.85444,0.235613,-0.631836,-4.05273,0.174316
799,-3.0304e-37,-0.201403,-0.0876223,9.41944,-0.887713,0.089509,-7.76587,-4.05273,0.179688
800,-3.03227e-37,-0.183592,-0.0809201,9.41135,-0.92785,0.237354,4.24194,-4.04883,0.178223
801,-3.03413e-37,-0.16619,-0.0756412,9.416,-0.877749,0.153673,5.18188,-4.04541,0.177734
802,-3.036e-37,-0.20651,-0.0686458,9.37571,-0.866914,0.212508,-7.35742,-4.04443,0.178223
803,-3.03787e-37,-0.196138,-0.0794754,9.42272,-0.853671,0.282717,-3.84131,-4.04565,0.176758
804,-3.03974e-37,-0.179322,-0.0632597,9.41195,-0.968474,0.177468,6.81592,-4.05151,0.179199
805,-3.04161e-37,-0.18764,-0.0784596,9.41401,-0.875469,0.168017,0.463623,-4.04785,0.175781
806,-3.04348e-37,-0.221588,-0.104403,9.37578,-0.88574,0.140097,1.93188,-4.04736,0.179199
807,-3.04534e-37,-0.201245,-0.0928654,9.39405,-0.83446,0.134667,0.199463,-4.04663,0.175049
808,-3.04721e-37,-0.170946,-0.0835667,9.39013,-0.806387,0.241273,6.75928,-4.04834,0.177246
809,-3.04908e-37,-0.186882,-0.0784239,9.40527,-0.896088,0.201289,-1.11475,-4.04468,0.177246
810,-3.05095e-37,-0.195094,-0.0760347,9.41658,-0.849829,0.25759,-4.30981,-4.04834,0.175781
811,-3.05282e-37,-0.190373,-0.0846324,9.38637,-0.875597,0.200931,6.86597,-4.0498,0.180664
812,-3.05469e-37,-0.20377,-0.0892962,9.40787,-0.821602,0.363479,5.81592,-4.04883,0.17627
813,-3.05655e-37,-0.200602,-0.0648189,9.39596,-0.90157,0.266503,1.14893,-4.05054,0.179688
814,-3.05842e-37,-0.199943,-0.0707488,9.3715,-0.924751,0.240966,7.7561,-4.04858,0.179199
815,-3.06029e-37,-0.201689,-0.0724011,9.35668,-0.916298,0.161587,1.45996,-4.04761,0.177246
816,-3.06216e-37,-0.202948,-0.0778229,9.41147,-0.832565,0.205618,-4.46948,-4.04663,0.181152
817,-3.06403e-37,-0.193027,-0.0824723,9.3836,-0.8184,0.116583,0.300537,-4.0437,0.174316
818,-3.0659e-37,-0.194321,-0.0769431,9.4064,-0.89532,0.286047,-5.25537,-4.04736,0.178711
819,-3.06776e-37,-0.18817,-0.0849972,9.38916,-0.872421,0.211125,1.98462,-4.04761,0.174316
820,-3.06963e-37,-0.175438,-0.0638177,9.38077,-0.840736,0.201289,7.17749,-4.04736,0.175781
821,-3.0715e-37,-0.198642,-0.0987878,9.38404,-0.935048,0.195731,0.784912,-4.05273,0.180176
822,-3.07337e-37,-0.183385,-0.0677016,9.38783,-0.875213,0.228825,0.990479,-4.0498,0.175293
823,-3.07524e-37,-0.199993,-0.075348,9.39974,-0.890966,0.238456,-1.15552,-4.05322,0.179199
824,-3.07711e-37,-0.192111,-0.0872432,9.40237,-0.896447,0.12145,-6.25146,-4.04761,0.177246
825,-3.07897e-37,-0.208505,-0.0748187,9.41649,-0.899239,0.151931,3.92383,-4.04639,0.179688
826,-3.08084e-37,-0.203126,-0.0858413,9.37495,-0.843656,0.121578,-1.06006,-4.04639,0.179688
827,-3.08271e-37,-0.19274,-0.0720291,9.41547,-0.927082,0.140353,6.34009,-4.04883,0.17627
828,-3.08458e-37,-0.197068,-0.0763852,9.37267,-0.90677,0.128776,7.02148,-4.0481,0.180664
829,-3.08645e-37,-0.182383,-0.069404,9.41066,-0.933485,0.229875,-6.41406,-4.04395,0.174561
830,-3.08832e-37,-0.200988,-0.0813493,9.44233,-0.956589,0.21945,5.65576,-4.04712,0.182617
831,-3.09018e-37,-0.206588,-0.070434,9.39383,-0.871985,0.250469,-4.36816,-4.04419,0.175781
832,-3.09205e-37,-0.188485,-0.0885522,9.3775,-0.882026,0.296882,7.02661,-4.05249,0.176758
833,-3.09392e-37,-0.18307,-0.0957551,9.38612,-0.842785,0.178134,-7.61816,-4.04565,0.177734
834,-3.09579e-37,-0.180996,-0.0741321,9.4329,-0.855874,0.236381,-4.09839,-4.0498,0.174316
835,-3.09766e-37,-0.207168,-0.0879585,9.40894,-0.769426,0.0916605,5.71509,-4.05225,0.178223
836,-3.09953e-37,-0.188077,-0.0638462,9.36416,-0.803032,0.237201,-0.0090332,-4.04785,0.176758
837,-3.10139e-37,-0.198549,-0.0869213,9.40389,-0.969371,0.242349,0.359375,-4.04834,0.178223
838,-3.10326e-37,-0.198212,-0.0896466,9.38346,-0.952363,0.219347,-0.948486,-4.05127,0.180176
839,-3.10513e-37,-0.194986,-0.0914777,9.39082,-0.800803,0.126803,7.81543,-4.05371,0.175293
840,-3.107e-37,-0.189057,-0.0796684,9.39605,-0.761767,0.0487055,5.0791,-4.04736,0.181152
841,-3.10887e-37,-0.201674,-0.086299,9.40256,-1.01117,0.214506,-3.20581,-4.05005,0.176758
842,-3.11074e-37,-0.211624,-0.0664141,9.41954,-1.07108,0.206438,-4.73096,-4.04688,0.180176
843,-3.1126e-37,-0.195867,-0.0831445,9.41991,-0.937532,0.240326,4.23682,-4.04492,0.178223
844,-3.11447e-37,-0.206545,-0.090226,9.41354,-0.686897,0.164354,-7.61182,-4.05054,0.175781
845,-3.11634e-37,-0.207075,-0.0757915,9.37471,-0.873189,0.173267,-4.77783,-4.05151,0.179199
846,-3.11821e-37,-0.192876,-0.0826297,9.40379,-0.854107,0.227544,-7.92627,-4.05054,0.174805
847,-3.12008e-37,-0.197318,-0.0728088,9.38467,-1.04606,0.36458,6.13354,-4.05127,0.177246
848,-3.12195e-37,-0.197239,-0.0939241,9.42851,-0.924981,0.185895,-1.05078,-4.05322,0.175781
849,-3.12381e-37,-0.205423,-0.0796468,9.39879,-0.754237,0.154595,0.417236,-4.05249,0.177734
850,-3.12568e-37,-0.195401,-0.0840387,9.37092,-0.626063,-0.0160345,-5.72412,-4.04956,0.179688
851,-3.12755e-37,-0.184679,-0.0626518,9.37916,-0.827058,0.238302,6.97461,-4.05273,0.176758
852,-3.12942e-37,-0.195666,-0.0515648,9.39327,-0.98497,0.342783,3.4104,-4.05469,0.179688
853,-3.13129e-37,-0.200945,-0.0696258,9.4226,-0.961533,0.2007,6.55322,-4.05127,0.178711
854,-3.13316e-37,-0.208871,-0.0823864,9.40272,-0.821116,0.162638,4.81738,-4.04761,0.180176
855,-3.13502e-37,-0.209099,-0.0891458,9.35413,-0.824881,0.0745758,-5.04883,-4.04492,0.177246
856,-3.13689e-37,-0.192876,-0.0781448,9.3908,-0.962993,0.284971,-4.67871,-4.04712,0.17627
857,-3.13876e-37,-0.178821,-0.0678948,9.43107,-1.03369,0.282922,6.49585,-4.04761,0.177734
858,-3.14063e-37,-0.201939,-0.0825294,9.431,-0.978592,0.308434,-2.36011,-4.05493,0.17627
859,-3.1425e-37,-0.232182,-0.0874863,9.3895,-0.831617,0.170834,-3.94165,-4.04907,0.178711
860,-3.14437e-37,-0.200394,-0.0735957,9.38069,-0.88323,0.174318,-1.11719,-4.04272,0.176758
861,-3.14623e-37,-0.181059,-0.0704484,9.39074,-0.945882,0.150112,-6.51074,-4.0498,0.179688
862,-3.1481e-37,-0.189743,-0.0831089,9.40218,-1.00546,0.267374,4.97778,-4.0498,0.177734
863,-3.14997e-37,-0.183435,-0.0880443,9.43873,-0.953054,0.177929,3.08398,-4.0459,0.178711
864,-3.15184e-37,-0.190172,-0.0816927,9.38233,-0.749934,0.108489,5.29175,-4.04932,0.180176
865,-3.15371e-37,-0.211231,-0.0756914,9.38463,-0.741225,0.131542,-4.72754,-4.0498,0.176758
866,-3.15558e-37,-0.186446,-0.0519797,9.39896,-0.828236,0.163508,-5.82861,-4.05005,0.180176
867,-3.15744e-37,-0.174708,-0.0892605,9.4171,-0.872472,0.285458,5.33936,-4.04565,0.175293
868,-3.15931e-37,-0.191238,-0.0931372,9.41096,-0.953772,0.188252,0.0952148,-4.04712,0.179199
869,-3.16118e-37,-0.220537,-0.0933803,9.39398,-0.888788,0.163637,4.71362,-4.04858,0.177734
870,-3.16305e-37,-0.206946,-0.104124,9.39125,-0.784743,0.0790071,7.28516,-4.04932,0.178711
871,-3.16492e-37,-0.182147,-0.0689677,9.37007,-0.762997,0.157873,-3.94678,-4.04517,0.181641
872,-3.16678e-37,-0.200817,-0.0702909,9.3734,-0.989913,0.257077,1.40698,-4.04736,0.174805
873,-3.16865e-37,-0.185209,-0.0762421,9.41,-0.929156,0.185511,7.2832,-4.04785,0.180664
874,-3.17052e-37,-0.197884,-0.0794394,9.40032,-0.924495,0.181823,6.44702,-4.05029,0.178711
875,-3.17239e-37,-0.193585,-0.115511,9.4166,-0.791172,0.180337,-0.320801,-4.0498,0.17627
876,-3.17426e-37,-0.195337,-0.0883735,9.37929,-0.915965,0.23154,5.70581,-4.04492,0.181152
877,-3.17613e-37,-0.184643,-0.0677088,9.37466,-0.883128,0.301416,-1.15356,-4.05469,0.176025
878,-3.17799e-37,-0.202032,-0.0568508,9.41635,-0.928618,0.131209,-2.31445,-4.0498,0.177734
879,-3.17986e-37,-0.210959,-0.0800189,9.40623,-0.722424,0.156874,-6.19824,-4.04834,0.176758
880,-3.18173e-37,-0.209121,-0.0853334,9.41313,-0.817299,0.205567,6.02856,-4.05127,0.177734
881,-3.1836e-37,-0.191903,-0.0865494,9.38019,-0.946651,0.0424044,-2.09888,-4.0542,0.177246
882,-3.18547e-37,-0.196031,-0.0881016,9.39485,-0.953874,0.10895,1.61963,-4.04932,0.177246
883,-3.18734e-37,-0.203906,-0.0666001,9.39924,-1.03054,0.144631,-5.09937,-4.04614,0.179688
884,-3.1892e-37,-0.212976,-0.0907624,9.39638,-0.893296,0.265402,-5.88574,-4.04688,0.176758
885,-3.19107e-37,-0.208834,-0.0833092,9.40485,-0.824573,0.209486,0.14502,-4.04492,0.176758
886,-3.19294e-37,-0.197426,-0.084282,9.38108,-0.874291,0.148422,-1.42944,-4.04468,0.180176
887,-3.19481e-37,-0.193033,-0.102665,9.40493,-0.882948,0.209025,4.08545,-4.04956,0.175781
888,-3.19668e-37,-0.186239,-0.104732,9.41784,-0.959765,0.276442,-4.57324,-4.04761,0.180176
889,-3.19855e-37,-0.206295,-0.084797,9.39419,-0.888097,0.0956564,3.82739,-4.05273,0.177246
890,-3.20041e-37,-0.200944,-0.0824223,9.38362,-0.962532,0.230336,0.043457,-4.04736,0.181152
891,-3.20228e-37,-0.180444,-0.0771005,9.4069,-0.927978,0.112126,-7.45435,-4.05078,0.17627
892,-3.20415e-37,-0.192619,-0.0865924,9.40386,-0.857821,0.201238,1.35645,-4.04858,0.176758
893,-3.20602e-37,-0.211073,-0.0892532,9.4015,-0.898778,0.199548,1.09375,-4.04834,0.176758
894,-3.20789e-37,-0.207876,-0.0943818,9.42137,-0.921139,0.187611,-2.52686,-4.04785,0.175781
895,-3.20976e-37,-0.209636,-0.0907481,9.39424,-0.829773,0.199471,-2.05371,-4.04858,0.180176
896,-3.21162e-37,-0.187862,-0.0769646,9.41116,-0.863584,0.193477,5.13013,-4.04614,0.177246
897,-3.21349e-37,-0.169938,-0.067766,9.38504,-0.88884,0.134308,5.65527,-4.04663,0.179688
898,-3.21536e-37,-0.180946,-0.0961127,9.40188,-0.916119,0.223138,1.30151,-4.04688,0.178711
899,-3.21723e-37,-0.209013,-0.0998752,9.41582,-0.841274,0.127725,-5.93506,-4.04907,0.177246
900,-3.2191e-37,-0.212919,-0.0813135,9.41812,-0.93848,0.11812,5.45312,-4.05249,0.179688
901,-3.22097e-37,-0.180387,-0.0773008,9.41564,-0.927824,0.180055,-1.89404,-4.05029,0.17627
902,-3.22283e-37,-0.194328,-0.08901,9.41412,-0.987147,0.149805,3.35083,-4.04956,0.178711
903,-3.2247e-37,-0.186067,-0.0789387,9.40272,-1.06775,0.269884,-4.68091,-4.04565,0.17627
904,-3.22657e-37,-0.187368,-0.0778516,9.42697,-0.876519,0.239532,-6.92969,-4.05078,0.179199
905,-3.22844e-37,-0.206517,-0.0846682,9.39643,-0.867785,0.0554676,2.40869,-4.05103,0.178223
906,-3.23031e-37,-0.18013,-0.0742607,9.39829,-0.917066,0.197755,-0.793701,-4.04956,0.175781
907,-3.23218e-37,-0.184922,-0.0846539,9.3934,-0.852467,0.272062,4.65698,-4.04541,0.178711
908,-3.23404e-37,-0.193205,-0.0848899,9.40997,-0.931103,0.156541,7.64941,-4.04712,0.174072
909,-3.23591e-37,-0.190931,-0.0845108,9.38252,-1.04114,0.0900724,0.617676,-4.04565,0.179688
910,-3.23778e-37,-0.200065,-0.0830087,9.36611,-0.987608,0.313736,2.45312,-4.04492,0.178711
911,-3.23965e-37,-0.195974,-0.0993673,9.38648,-0.903055,0.297368,4.56396,-4.0542,0.175781
912,-3.24152e-37,-0.180581,-0.0911558,9.38235,-0.949725,0.325134,-0.267578,-4.05054,0.178223
913,-3.24339e-37,-0.180517,-0.0832232,9.39823,-0.82214,0.322009,-7.08105,-4.05493,0.176758
914,-3.24525e-37,-0.184114,-0.0845037,9.38153,-0.900443,0.200342,7.33545,-4.04761,0.181152
915,-3.24712e-37,-0.198484,-0.0898683,9.37337,-0.980615,0.172166,-2.00757,-4.04395,0.175293
916,-3.24899e-37,-0.208734,-0.0893462,9.39555,-0.864788,0.0820552,-5.36206,-4.0459,0.177246
917,-3.25086e-37,-0.198863,-0.0689463,9.42421,-0.943603,0.140814,1.61694,-4.04736,0.179199
918,-3.25273e-37,-0.195294,-0.0631596,9.39929,-0.764764,0.175573,4.45264,-4.04932,0.177734
919,-3.2546e-37,-0.18596,-0.0784595,9.43276,-0.866888,0.0941707,-1.25977,-4.05371,0.177734
920,-3.25646e-37,-0.210072,-0.0717788,9.40931,-0.935099,0.0825675,2.13672,-4.04346,0.176758
921,-3.25833e-37,-0.197883,-0.0840387,9.40263,-0.97247,0.176341,5.92456,-4.05176,0.177246
922,-3.2602e-37,-0.193263,-0.0918353,9.38345,-0.833564,0.190532,3.25,-4.05249,0.179688
923,-3.26207e-37,-0.190351,-0.0687317,9.38464,-0.879414,0.112767,1.35254,-4.04565,0.177246
924,-3.26394e-37,-0.20156,-0.0930943,9.39818,-0.853774,0.0884844,-6.56787,-4.04663,0.181641
925,-3.26581e-37,-0.199522,-0.0828513,9.41253,-0.888071,0.218425,-3.63013,-4.04663,0.177246
926,-3.26767e-37,-0.211996,-0.0844178,9.39011,-0.906718,0.219911,4.50464,-4.04907,0.180176
927,-3.26954e-37,-0.207811,-0.0828801,9.41635,-0.896831,0.197012,6.28418,-4.04614,0.177246
928,-3.27141e-37,-0.186103,-0.0720863,9.38133,-0.980334,0.200649,-0.539551,-4.04346,0.179688
929,-3.27328e-37,-0.193563,-0.082737,9.40587,-0.923393,0.169528,-1.32275,-4.04614,0.178223
930,-3.27515e-37,-0.191503,-0.0836167,9.38933,-0.861432,0.102265,-5.71411,-4.05737,0.174316
931,-3.27702e-37,-0.172776,-0.0909627,9.39442,-0.927005,0.0952721,-0.898682,-4.04956,0.179199
932,-3.27888e-37,-0.19465,-0.081521,9.41011,-0.962993,0.211843,0.050293,-4.05273,0.17627
933,-3.28075e-37,-0.187312,-0.0860058,9.41169,-0.862021,0.166352,1.62354,-4.05225,0.177734
934,-3.28262e-37,-0.194736,-0.0811133,9.38646,-0.885049,0.123064,1.0498,-4.05493,0.178223
935,-3.28449e-37,-0.174451,-0.0806125,9.37411,-0.938915,0.155081,4.8772,-4.05322,0.177734
936,-3.28636e-37,-0.19754,-0.0637604,9.40365,-0.82278,0.161152,-1.58447,-4.04639,0.181152
937,-3.28823e-37,-0.183556,-0.0720077,9.3827,-0.870833,0.284203,4.1394,-4.05078,0.177002
938,-3.29009e-37,-0.188635,-0.0686315,9.40163,-0.904029,0.236355,5.34204,-4.04761,0.179688
939,-3.29196e-37,-0.199092,-0.0930299,9.3856,-0.867093,0.145527,2.24951,-4.0498,0.176758
940,-3.29383e-37,-0.195137,-0.0812634,9.38914,-0.889864,0.215941,7.28247,-4.04736,0.177734
941,-3.2957e-37,-0.186482,-0.0827655,9.39847,-0.948597,0.129749,6.07959,-4.05005,0.177734
942,-3.29757e-37,-0.181689,-0.0747115,9.38682,-0.945063,0.0743453,7.60718,-4.05469,0.177246
943,-3.29944e-37,-0.172219,-0.0812277,9.39185,-0.866632,0.197038,-7.5061,-4.05103,0.179688
944,-3.3013e-37,-0.197633,-0.0855909,9.38175,-0.931206,0.170143,-3.36108,-4.05176,0.174805
945,-3.30317e-37,-0.193184,-0.0857197,9.40597,-0.948213,0.228825,7.86035,-4.0481,0.179688
946,-3.30504e-37,-0.200229,-0.0870287,9.38553,-0.936252,0.173472,0.258057,-4.05127,0.177734
947,-3.30691e-37,-0.221509,-0.0880944,9.411,-0.884921,0.0985252,-5.68018,-4.04346,0.17627
948,-3.30878e-37,-0.205873,-0.0952974,9.45667,-0.916631,0.248906,6.97021,-4.04932,0.180176
949,-3.31065e-37,-0.187805,-0.0779016,9.39658,-0.874829,0.247574,5.96899,-4.04614,0.176758
950,-3.31251e-37,-0.211709,-0.0716072,9.42109,-0.957716,0.241837,-7.71558,-4.05103,0.182129
951,-3.31438e-37,-0.196374,-0.0885236,9.3806,-0.937968,0.267579,2.41089,-4.05249,0.176758
952,-3.31625e-37,-0.182154,-0.0854193,9.43125,-0.972111,0.232923,-4.67358,-4.05103,0.178223
953,-3.31812e-37,-0.197948,-0.0850974,9.39055,-0.892835,0.132951,-2.10449,-4.0498,0.179199
954,-3.31999e-37,-0.195001,-0.0803193,9.38953,-0.870269,0.102393,7.18311,-4.05176,0.177246
955,-3.32186e-37,-0.19063,-0.0721865,9.39263,-0.918193,0.245244,3.87598,-4.04956,0.180664
956,-3.32372e-37,-0.176926,-0.0789459,9.43279,-0.918629,0.158924,-3.8894,-4.04883,0.177246
957,-3.32559e-37,-0.203377,-0.0784451,9.38266,-0.906104,0.208282,-0.638428,-4.04785,0.179688
958,-3.32746e-37,-0.195909,-0.0789316,9.36813,-0.890786,0.210613,-1.11475,-4.04468,0.179199
959,-3.32933e-37,-0.187819,-0.0720792,9.42838,-0.95559,0.283281,5.18237,-4.0459,0.175293
960,-3.3312e-37,-0.179079,-0.0815996,9.39793,-0.851212,0.233999,1.77319,-4.04614,0.180176
961,-3.33307e-37,-0.182955,-0.0888669,9.41369,-0.995523,0.251237,2.0376,-4.04785,0.175781
962,-3.33493e-37,-0.197683,-0.0873291,9.39348,-0.868527,0.248983,-2.84277,-4.04688,0.181152
963,-3.3368e-37,-0.184243,-0.0832949,9.4073,-0.948034,0.153749,3.97974,-4.04907,0.177246
964,-3.33867e-37,-0.186782,-0.0759346,9.39544,-0.864583,0.174574,-0.431152,-4.0459,0.176758
965,-3.34054e-37,-0.190795,-0.0816425,9.41325,-0.886714,0.178903,0.359131,-4.04834,0.179688
966,-3.34241e-37,-0.186239,-0.0808343,9.43019,-0.892041,0.167197,4.60449,-4.04517,0.174805
967,-3.34428e-37,-0.180845,-0.0928797,9.40303,-0.913916,0.224035,2.51147,-4.04956,0.181152
968,-3.34614e-37,-0.206638,-0.0872718,9.37205,-0.894014,0.144964,0.51123,-4.04419,0.177246
969,-3.34801e-37,-0.212984,-0.0813707,9.36915,-0.89053,0.177648,-0.697021,-4.04321,0.179688
970,-3.34988e-37,-0.21927,-0.0748974,9.4199,-0.8924,0.35705,0.305664,-4.04761,0.176758
971,-3.35175e-37,-0.214141,-0.080863,9.43228,-0.865915,0.192171,-4.83521,-4.04785,0.177246
972,-3.35362e-37,-0.197726,-0.0940098,9.40886,-0.86717,0.104212,4.91724,-4.0437,0.180664
973,-3.35549e-37,-0.185001,-0.0900114,9.39314,-0.836971,0.0990374,-3.67773,-4.05029,0.176025
974,-3.35735e-37,-0.188842,-0.0890315,9.38779,-0.879081,0.215992,0.560059,-4.0415,0.179199
975,-3.35922e-37,-0.209872,-0.087794,9.39509,-0.946369,0.208052,5.23071,-4.04272,0.178223
976,-3.36109e-37,-0.190895,-0.0736385,9.37715,-0.843682,0.199701,5.5542,-4.04956,0.178711
977,-3.36296e-37,-0.190959,-0.0703554,9.41467,-1.01755,0.0912507,3.61401,-4.05029,0.179688
978,-3.36483e-37,-0.202175,-0.0960484,9.37801,-0.862406,0.158847,-6.2002,-4.04688,0.174805
979,-3.3667e-37,-0.196267,-0.0764138,9.40856,-0.863097,0.280361,7.91772,-4.05176,0.178711
980,-3.36856e-37,-0.199035,-0.0881016,9.40158,-0.844732,0.217273,5.97461,-4.05005,0.175781
981,-3.37043e-37,-0.210294,-0.0781448,9.42128,-0.876314,0.239429,-7.40771,-4.04614,0.179199
982,-3.3723e-37,-0.213405,-0.06753,9.41354,-0.795399,0.194041,0.358643,-4.04785,0.180176
983,-3.37417e-37,-0.195816,-0.081893,9.4158,-0.844783,0.196858,-2.78955,-4.04761,0.178711
984,-3.37604e-37,-0.17586,-0.0828299,9.4162,-0.845372,0.183795,5.61206,-4.05371,0.180176
985,-3.37791e-37,-0.202597,-0.0810489,9.37175,-0.907999,0.261022,-4.09692,-4.05078,0.17749
986,-3.37977e-37,-0.19146,-0.089854,9.38203,-0.901672,0.21297,-3.35547,-4.05615,0.182617
987,-3.38164e-37,-0.196138,-0.0872575,9.39168,-0.925622,0.103033,-6.30322,-4.04834,0.17627
988,-3.38351e-37,-0.191238,-0.0878441,9.40477,-0.896831,0.119811,5.49951,-4.04785,0.178223
989,-3.38538e-37,-0.192226,-0.0856051,9.41999,-1.00418,0.226904,-7.6062,-4.05493,0.180176
990,-3.38725e-37,-0.189815,-0.0741106,9.4088,-0.933588,0.108796,-1.42798,-4.04565,0.177734
991,-3.38912e-37,-0.197697,-0.0857411,9.39618,-0.861074,0.237252,-5.1438,-4.05225,0.180664
992,-3.39098e-37,-0.202819,-0.0986877,9.41113,-0.902953,0.0848472,6.96631,-4.04639,0.176025
993,-3.39285e-37,-0.210809,-0.0795611,9.41922,-0.839711,0.0984995,-3.41895,-4.04761,0.179199
994,-3.39472e-37,-0.205637,-0.0940884,9.412,-0.913224,0.168017,-7.34839,-4.05127,0.178223
995,-3.39659e-37,-0.208269,-0.0838528,9.39314,-0.845244,0.194374,-3.62573,-4.05005,0.176758
996,-3.39846e-37,-0.204156,-0.0953761,9.40476,-0.814072,0.21402,-4.62817,-4.04541,0.180664
997,-3.40033e-37,-0.19533,-0.0923146,9.39439,-0.890991,0.155312,0.886475,-4.05029,0.176025
998,-3.40219e-37,-0.183885,-0.0744969,9.42855,-0.929182,0.188175,-0.108643,-4.05176,0.180664
999,-3.40406e-37,-0.213756,-0.0855981,9.40818,-0.910304,0.163995,-7.77539,-4.0459,0.17627
1000,-3.40593e-37,-0.192905,-0.0741177,9.39919,-0.934356,0.159385,-0.527832,-4.05225,0.177246
1001,-3.4078e-37,-0.187111,-0.0837742,9.4111,-1.02147,0.147551,-3.52539,-4.04663,0.180664
1002,-3.40967e-37,-0.208627,-0.0900973,9.40263,-0.844476,0.161972,3.50415,-4.04639,0.174316
1003,-3.41154e-37,-0.201997,-0.0808627,9.38567,-0.904951,0.357255,4.92554,-4.05005,0.181152
1004,-3.4134e-37,-0.199185,-0.0778802,9.38444,-0.871499,0.199804,5.45776,-4.05591,0.173828
1005,-3.41527e-37,-0.176582,-0.0918926,9.4016,-0.927158,0.21133,0.310791,-4.05151,0.177734
1006,-3.41714e-37,-0.199944,-0.0818356,9.39528,-0.832744,0.186638,1.10229,-4.05469,0.180176
1007,-3.41901e-37,-0.19131,-0.077215,9.38697,-0.93118,0.0941451,3.19824,-4.05322,0.175781
1008,-3.42088e-37,-0.187118,-0.0797113,9.42753,-0.874982,0.0984227,7.79126,-4.03516,0.179688
1009,-3.42275e-37,-0.195144,-0.0861631,9.40449,-0.834537,0.172217,-5.56494,-4.05127,0.175049
1010,-3.42461e-37,-0.189807,-0.0860202,9.39922,-0.844322,0.178954,6.60303,-4.04907,0.179688
1011,-3.42648e-37,-0.196481,-0.0883663,9.37489,-0.916042,0.218835,-7.24341,-4.05127,0.177734
1012,-3.42835e-37,-0.211752,-0.0587035,9.39542,-0.875597,0.259767,-6.35083,-4.052,0.178711
1013,-3.43022e-37,-0.191574,-0.0960986,9.39087,-0.828544,0.25426,0.412598,-4.04858,0.176758
1014,-3.43209e-37,-0.173499,-0.068045,9.40996,-0.951595,0.0972188,-7.14282,-4.04785,0.175293
1015,-3.43396e-37,-0.212468,-0.0778443,9.38587,-0.87821,0.165839,2.87769,-4.04883,0.179688
1016,-3.43582e-37,-0.187283,-0.0834451,9.41162,-0.748525,0.307845,4.91968,-4.04565,0.175781
1017,-3.43769e-37,-0.188985,-0.0711279,9.40786,-0.786024,0.24217,-2.88745,-4.05298,0.181152
1018,-3.43956e-37,-0.184307,-0.081428,9.39745,-0.963992,0.157873,-7.08545,-4.052,0.177246
1019,-3.44143e-37,-0.197933,-0.0728517,9.38189,-0.807335,0.23259,0.986816,-4.04688,0.17627
1020,-3.4433e-37,-0.194293,-0.0809916,9.39577,-0.893911,0.178851,-5.67163,-4.0498,0.181152
1021,-3.44517e-37,-0.205752,-0.0727015,9.37097,-0.922164,0.217478,0.412598,-4.04907,0.176514
1022,-3.44703e-37,-0.192555,-0.106141,9.40009,-0.877339,0.192222,-3.26392,-4.0459,0.178711
1023,-3.4489e-37,-0.18043,-0.082694,9.39259,-0.972393,0.318526,3.77222,-4.05054,0.17627
1024,-3.45077e-37,-0.197525,-0.0910629,9.41717,-0.901032,0.143401,5.02466,-4.04565,0.178223
1025,-3.45264e-37,-0.194664,-0.079926,9.39673,-0.869911,0.349673,-1.89673,-4.04834,0.178223
1026,-3.45451e-37,-0.176468,-0.0726586,9.36311,-0.846115,0.104365,5.28564,-4.04492,0.175781
1027,-3.45638e-37,-0.187683,-0.0858985,9.4019,-0.936636,0.257487,-7.88135,-4.04492,0.180664
1028,-3.45824e-37,-0.196925,-0.0997893,9.37778,-0.853722,0.222805,-2.94263,-4.05078,0.178223
1029,-3.46011e-37,-0.190909,-0.0811204,9.40097,-0.964632,0.00695426,5.39331,-4.04688,0.179199
1030,-3.46198e-37,-0.192011,-0.0610638,9.42052,-0.874419,0.0751137,0.723633,-4.04614,0.177246
1031,-3.46385e-37,-0.195016,-0.0802048,9.39949,-0.902722,0.000627549,4.81201,-4.0437,0.177246
1032,-3.46572e-37,-0.195888,-0.0911773,9.40183,-0.846858,0.155568,4.34937,-4.05078,0.180176
1033,-3.46759e-37,-0.209364,-0.0748186,9.35774,-0.843682,0.351952,1.6167,-4.04736,0.175049
1034,-3.46945e-37,-0.200823,-0.0787027,9.42595,-0.804748,0.12022,6.28589,-4.04761,0.181152
1035,-3.47132e-37,-0.183749,-0.0817141,9.41306,-0.904695,0.0911226,-7.6189,-4.04517,0.175781
1036,-3.47319e-37,-0.179443,-0.0867354,9.40336,-0.830209,0.165276,-3.15698,-4.04736,0.178711
1037,-3.47506e-37,-0.187705,-0.0777943,9.44527,-0.986968,0.173011,-6.24219,-4.05493,0.179199
1038,-3.47693e-37,-0.198993,-0.0814493,9.3985,-0.85613,0.161895,-6.67334,-4.04614,0.175293
1039,-3.47879e-37,-0.190845,-0.0739389,9.39616,-0.816812,0.15649,-2.26318,-4.04858,0.180176
1040,-3.48066e-37,-0.182433,-0.057888,9.4135,-0.939991,0.275673,7.7124,-4.05518,0.175293
1041,-3.48253e-37,-0.198069,-0.0889599,9.41459,-0.945191,0.367065,3.66357,-4.0481,0.177246
1042,-3.4844e-37,-0.198799,-0.0853978,9.40599,-0.861253,0.178083,3.45728,-4.05054,0.179199
1043,-3.48627e-37,-0.193141,-0.0993887,9.38212,-0.849932,0.195936,7.17725,-4.04688,0.178223
1044,-3.48814e-37,-0.188871,-0.0771076,9.391,-0.836074,0.186049,-7.51294,-4.04614,0.181152
1045,-3.49e-37,-0.186768,-0.077594,9.37449,-0.883332,0.203774,-6.56738,-4.04712,0.176514
1046,-3.49187e-37,-0.195523,-0.0751978,9.39517,-0.897446,0.132566,-1.68872,-4.04688,0.180176
1047,-3.49374e-37,-0.191567,-0.0955548,9.38886,-0.90887,0.196243,6.28271,-4.04517,0.178711
1048,-3.49561e-37,-0.197125,-0.0863849,9.40313,-0.922958,0.168247,-1.00415,-4.04907,0.176758
1049,-3.49748e-37,-0.186296,-0.0754553,9.418,-0.920678,0.191018,-6.72363,-4.04785,0.177734
1050,-3.49935e-37,-0.208899,-0.0896037,9.41204,-0.905105,0.17921,6.54761,-4.04736,0.177734
1051,-3.50121e-37,-0.178692,-0.0977508,9.4061,-0.81548,0.164098,1.77466,-4.04761,0.179688
1052,-3.50308e-37,-0.19362,-0.101756,9.361,-0.919218,0.0829517,6.44116,-4.0459,0.17334
1053,-3.50495e-37,-0.184322,-0.0830588,9.39914,-0.936277,0.214302,-3.99878,-4.04541,0.180664
1054,-3.50682e-37,-0.188578,-0.0903976,9.42593,-0.912123,0.162535,1.03735,-4.04565,0.177734
1055,-3.50869e-37,-0.192548,-0.0864135,9.41178,-0.874291,0.108054,-2.32129,-4.04492,0.177246
1056,-3.51056e-37,-0.187698,-0.0639321,9.40597,-0.95057,0.201033,4.08105,-4.04614,0.180176
1057,-3.51242e-37,-0.164294,-0.0790747,9.40446,-0.886816,0.145809,-0.638916,-4.04736,0.175293
1058,-3.51429e-37,-0.173636,-0.0951399,9.39662,-0.878389,0.148012,3.45093,-4.04565,0.181152
1059,-3.51616e-37,-0.183799,-0.0770933,9.41024,-0.842503,0.196474,-5.98682,-4.0498,0.177246
1060,-3.51803e-37,-0.193564,-0.0925363,9.35806,-0.869783,0.096809,-2.21948,-4.04199,0.177246
1061,-3.5199e-37,-0.203019,-0.0729734,9.40152,-0.883819,0.148908,-5.83203,-4.04761,0.178711
1062,-3.52177e-37,-0.195995,-0.0905979,9.40487,-0.853466,0.162971,-4.09985,-4.04834,0.177246
1063,-3.52363e-37,-0.191159,-0.0808773,9.38429,-0.952926,0.255848,-7.50708,-4.05005,0.177734
1064,-3.5255e-37,-0.18297,-0.0517294,9.41284,-0.930642,0.137792,-5.67603,-4.04639,0.175781
1065,-3.52737e-37,-0.186339,-0.0870143,9.40052,-0.888378,0.146782,-3.9978,-4.04639,0.178223
1066,-3.52924e-37,-0.211631,-0.0747329,9.44265,-0.86927,0.182591,6.39087,-4.04761,0.179199
1067,-3.53111e-37,-0.186303,-0.0792249,9.40751,-0.985072,0.132925,2.98169,-4.04785,0.176758
1068,-3.53298e-37,-0.199672,-0.0586317,9.39927,-0.862611,0.257308,5.60791,-4.05029,0.179199
1069,-3.53484e-37,-0.194229,-0.070062,9.42381,-0.952696,0.16607,6.7605,-4.04932,0.175781
1070,-3.53671e-37,-0.180945,-0.0812062,9.38565,-0.768273,0.245192,-2.31274,-4.05127,0.181152
1071,-3.53858e-37,-0.183199,-0.0696758,9.40036,-0.853518,0.195552,3.76709,-4.04712,0.179199
1072,-3.54045e-37,-0.177197,-0.0879228,9.38135,-0.956128,0.247677,-5.87988,-4.05127,0.177734
1073,-3.54232e-37,-0.185409,-0.094861,9.36188,-0.852903,0.158206,3.98633,-4.05396,0.180176
1074,-3.54419e-37,-0.219042,-0.0876939,9.39386,-0.911047,0.230413,7.49927,-4.05273,0.17627
1075,-3.54605e-37,-0.18694,-0.0876724,9.41132,-0.866683,0.215096,3.77075,-4.04956,0.180176
1076,-3.54792e-37,-0.203913,-0.0896823,9.41641,-0.858282,0.26074,-0.790283,-4.052,0.176758
1077,-3.54979e-37,-0.182005,-0.0853047,9.39542,-0.938044,0.221653,-0.0581055,-4.05054,0.179199
1078,-3.55166e-37,-0.200201,-0.0932801,9.4015,-0.943347,0.216453,-2.89624,-4.04614,0.178223
1079,-3.55353e-37,-0.190058,-0.0835595,9.38477,-0.934382,0.0472198,-3.40771,-4.0564,0.17627
1080,-3.5554e-37,-0.18337,-0.0845967,9.40158,-0.881796,0.221269,-2.20996,-4.04932,0.182617
1081,-3.55726e-37,-0.209828,-0.0804123,9.39443,-0.95226,0.125984,3.71875,-4.0498,0.17749
1082,-3.55913e-37,-0.202311,-0.0743395,9.41414,-0.92347,0.267553,-2.1604,-4.04712,0.179688
1083,-3.561e-37,-0.185294,-0.0627519,9.40339,-0.813303,0.197037,5.18848,-4.05078,0.174316
1084,-3.56287e-37,-0.181983,-0.0843106,9.41899,-0.853697,0.155235,6.23779,-4.05078,0.177246
1085,-3.56474e-37,-0.194436,-0.10044,9.39619,-0.952978,0.215582,-7.77686,-4.04492,0.178223
1086,-3.56661e-37,-0.195651,-0.0747687,9.38898,-0.951748,0.18277,-1.68774,-4.04785,0.175781
1087,-3.56847e-37,-0.200237,-0.0750118,9.40385,-0.93848,0.230797,3.45581,-4.04956,0.178223
1088,-3.57034e-37,-0.185015,-0.0875866,9.4173,-0.920294,0.117275,-5.41016,-4.04907,0.176758
1089,-3.57221e-37,-0.210902,-0.0766569,9.42781,-0.953695,0.215429,4.76514,-4.04785,0.177734
1090,-3.57408e-37,-0.19445,-0.070098,9.39966,-0.991501,0.238097,-0.531494,-4.04932,0.177246
1091,-3.57595e-37,-0.201746,-0.0600124,9.35306,-0.958382,0.202724,4.50562,-4.05005,0.175293
1092,-3.57782e-37,-0.186603,-0.083581,9.40378,-0.987096,0.114688,1.40625,-4.04639,0.179199
1093,-3.57968e-37,-0.176225,-0.0798472,9.40286,-1.04007,0.0898163,-5.99048,-4.04688,0.17749
1094,-3.58155e-37,-0.189565,-0.0762708,9.39592,-1.0017,0.281897,6.54663,-4.04639,0.178711
1095,-3.58342e-37,-0.189658,-0.0823292,9.40262,-1.02506,0.305719,5.71069,-4.04883,0.176758
1096,-3.58529e-37,-0.194622,-0.0740962,9.39653,-0.918091,0.186305,-1.3689,-4.05078,0.178711
1097,-3.58716e-37,-0.196661,-0.0891172,9.38705,-0.926954,0.0885868,-7.03613,-4.04932,0.178223
1098,-3.58903e-37,-0.17581,-0.080727,9.38889,-0.839865,0.122449,6.39233,-4.04858,0.178711
1099,-3.59089e-37,-0.180846,-0.0850401,9.38089,-0.816402,0.108668,6.65649,-4.05029,0.180176
1100,-3.59276e-37,-0.194786,-0.0992314,9.39534,-0.708106,0.0709899,-3.3147,-4.04712,0.174561
1101,-3.59463e-37,-0.18415,-0.0831088,9.40177,-0.98082,0.219937,-4.20288,-4.0498,0.177734
1102,-3.5965e-37,-0.178306,-0.095798,9.42057,-0.851468,0.193093,-3.20288,-4.05249,0.178223
1103,-3.59837e-37,-0.183706,-0.0813922,9.41165,-0.879029,0.16607,-2.4187,-4.05029,0.178223
1104,-3.60024e-37,-0.188084,-0.118487,9.38588,-0.934356,0.310124,2.04517,-4.05371,0.178711
1105,-3.6021e-37,-0.17993,-0.098466,9.38733,-0.960508,0.258384,-3.46558,-4.05176,0.175049
1106,-3.60397e-37,-0.18812,-0.0702409,9.40818,-0.834819,0.179338,-5.87451,-4.05518,0.182129
1107,-3.60584e-37,-0.197962,-0.0727945,9.42259,-0.832975,0.211535,-0.693115,-4.04614,0.176025
1108,-3.60771e-37,-0.181304,-0.0784236,9.37781,-0.930181,0.321779,-6.93457,-4.04688,0.179199
1109,-3.60958e-37,-0.196617,-0.0872218,9.40416,-0.86507,0.207719,-6.35303,-4.05054,0.180176
1110,-3.61145e-37,-0.201867,-0.0851475,9.42859,-0.863328,0.113151,-1.21826,-4.04565,0.175781
1111,-3.61331e-37,-0.188328,-0.0638248,9.38778,-0.839225,0.152827,3.24048,-4.04517,0.180176
1112,-3.61518e-37,-0.211645,-0.063925,9.36153,-0.765558,0.147013,-2.84082,-4.04834,0.174072
1113,-3.61705e-37,-0.196431,-0.0807771,9.39281,-0.8632,0.189097,6.06567,-4.03979,0.179688
1114,-3.61892e-37,-0.187147,-0.0704627,9.39841,-0.909229,0.153032,-7.29956,-4.04858,0.178223
1115,-3.62079e-37,-0.191681,-0.0810776,9.39506,-0.902876,0.245141,-5.09766,-4.04761,0.177734
1116,-3.62266e-37,-0.186374,-0.0837741,9.39679,-0.929617,0.170168,0.881836,-4.04688,0.181152
1117,-3.62452e-37,-0.186424,-0.0799331,9.42533,-0.906898,0.186433,-1.95483,-4.04419,0.176514
1118,-3.62639e-37,-0.196295,-0.0832448,9.39333,-0.890658,0.223728,-2.06201,-4.04272,0.179199
1119,-3.62826e-37,-0.195258,-0.0843749,9.40632,-0.92347,0.205132,3.3999,-4.04688,0.174316
1120,-3.63013e-37,-0.1997,-0.0904978,9.38512,-0.871243,0.194399,-2.73169,-4.05176,0.178711
1121,-3.632e-37,-0.18759,-0.0826511,9.37189,-0.957742,0.195373,5.08008,-4.04785,0.179688
1122,-3.63387e-37,-0.200358,-0.0800689,9.39814,-0.980359,0.180337,-5.14746,-4.0498,0.177246
1123,-3.63573e-37,-0.165067,-0.0978365,9.38712,-0.948162,0.135358,0.571533,-4.05029,0.179199
1124,-3.6376e-37,-0.195559,-0.0731235,9.42559,-0.910637,0.262636,-0.428711,-4.04785,0.174805
1125,-3.63947e-37,-0.185315,-0.0827656,9.41527,-0.898983,0.173396,-2.9021,-4.04175,0.17627
1126,-3.64134e-37,-0.187169,-0.0969138,9.4003,-0.920038,0.246908,2.14429,-4.04932,0.179199
1127,-3.64321e-37,-0.185051,-0.0821504,9.4324,-0.903849,0.24176,-4.31421,-4.04492,0.174316
1128,-3.64508e-37,-0.193392,-0.0765353,9.37955,-0.917323,0.188943,-6.88403,-4.04565,0.180664
1129,-3.64694e-37,-0.179601,-0.0905478,9.38899,-0.866248,0.17734,-5.67407,-4.04834,0.177002
1130,-3.64881e-37,-0.185631,-0.0876866,9.43207,-0.841889,0.13208,5.91846,-4.04736,0.179199
1131,-3.65068e-37,-0.200923,-0.0917924,9.40168,-0.874854,0.22319,-5.98315,-4.05225,0.177246
1132,-3.65255e-37,-0.187734,-0.0820359,9.40175,-1.00861,0.155107,2.72192,-4.05005,0.176758
1133,-3.65442e-37,-0.20058,-0.0735099,9.41225,-0.918655,0.252646,-7.03711,-4.04883,0.178711
1134,-3.65629e-37,-0.184973,-0.0833163,9.40755,-0.905361,0.0947599,-2.16113,-4.04663,0.174805
1135,-3.65815e-37,-0.172862,-0.0940814,9.40634,-0.922138,0.128904,-3.1062,-4.04614,0.180664
1136,-3.66002e-37,-0.197755,-0.0713782,9.40021,-0.851622,0.0738586,4.44995,-4.04736,0.17334
1137,-3.66189e-37,-0.199414,-0.0743037,9.39804,-0.868809,0.218118,-2.05347,-4.04858,0.180176
1138,-3.66376e-37,-0.19116,-0.0682095,9.39376,-0.940017,0.197601,-7.24731,-4.04834,0.179199
1139,-3.66563e-37,-0.186603,-0.0775297,9.38892,-0.934996,0.240633,2.40894,-4.05103,0.172852
1140,-3.6675e-37,-0.179701,-0.0782306,9.39099,-0.877928,0.203902,1.40918,-4.04883,0.180176
1141,-3.66936e-37,-0.189121,-0.0880014,9.41542,-0.933972,0.224829,2.30322,-4.05054,0.17627
1142,-3.67123e-37,-0.191503,-0.0953975,9.39219,-1.01194,0.152597,2.4082,-4.05054,0.179688
1143,-3.6731e-37,-0.203012,-0.0902903,9.42628,-0.956922,0.23323,0.463623,-4.04785,0.176758
1144,-3.67497e-37,-0.201703,-0.0824008,9.40363,-0.921139,0.14586,-2.73218,-4.05127,0.178711
1145,-3.67684e-37,-0.197841,-0.0801833,9.38385,-0.865249,0.150035,7.86377,-4.05054,0.178223
1146,-3.67871e-37,-0.183463,-0.0897753,9.41435,-0.93141,0.215505,1.09424,-4.04883,0.17334
1147,-3.68057e-37,-0.184207,-0.0770862,9.38312,-0.837509,0.211766,2.57349,-4.05664,0.179199
1148,-3.68244e-37,-0.194028,-0.0648834,9.39793,-0.895858,0.116711,7.70459,-4.04932,0.177734
1149,-3.68431e-37,-0.194564,-0.0874149,9.37796,-1.01773,0.177494,3.08569,-4.04736,0.180664
1150,-3.68618e-37,-0.174207,-0.0773723,9.43017,-1.0663,0.174702,-0.0566406,-4.05151,0.179199
1151,-3.68805e-37,-0.199751,-0.0849327,9.38791,-0.971983,0.263993,2.92896,-4.04761,0.176758
1152,-3.68992e-37,-0.189178,-0.0773437,9.41174,-0.939581,0.104263,1.05127,-4.05591,0.179688
1153,-3.69178e-37,-0.18189,-0.0836167,9.42594,-0.92265,0.251084,7.8125,-4.05127,0.178711
1154,-3.69365e-37,-0.204557,-0.0879371,9.43981,-0.941964,0.124754,-7.29248,-4.05396,0.181152
1155,-3.69552e-37,-0.182011,-0.0799187,9.39723,-0.974007,0.147884,4.39307,-4.04419,0.177246
1156,-3.69739e-37,-0.196003,-0.0878297,9.39221,-0.799292,0.206438,-5.72461,-4.04956,0.176758
1157,-3.69926e-37,-0.198863,-0.0630666,9.37947,-0.768094,0.158539,-2.68359,-4.04858,0.178223
1158,-3.70113e-37,-0.197068,-0.0910271,9.41054,-0.774805,0.205055,3.02881,-4.0437,0.175293
1159,-3.70299e-37,-0.206317,-0.0784309,9.36243,-0.840147,0.198062,-6.72021,-4.05029,0.180664
1160,-3.70486e-37,-0.207976,-0.0690965,9.36586,-0.919141,0.3581,1.9873,-4.05005,0.175781
1161,-3.70673e-37,-0.199235,-0.107786,9.38615,-1.00772,0.163124,-5.35645,-4.05029,0.178711
1162,-3.7086e-37,-0.204964,-0.0847183,9.40466,-0.908153,0.0939658,6.64917,-4.04443,0.179199
1163,-3.71047e-37,-0.215944,-0.0905049,9.41299,-0.953259,0.0548785,-6.78223,-4.04321,0.177246
1164,-3.71234e-37,-0.210822,-0.0861704,9.40471,-0.918475,0.273137,-4.93921,-4.04834,0.180176
1165,-3.7142e-37,-0.170116,-0.0808128,9.41955,-0.989734,0.185306,4.14062,-4.05176,0.17749
1166,-3.71607e-37,-0.203484,-0.0822505,9.41698,-0.838943,0.238609,1.14575,-4.0481,0.180664
1167,-3.71794e-37,-0.194722,-0.0788243,9.40675,-1.0194,0.197038,5.92041,-4.04883,0.177734
1168,-3.71981e-37,-0.17757,-0.0878154,9.40962,-0.939274,0.147295,-1.94604,-4.05054,0.178711
1169,-3.72168e-37,-0.186596,-0.066643,9.37771,-0.793145,0.19048,6.81104,-4.0481,0.180176
1170,-3.72355e-37,-0.201789,-0.0761277,9.4076,-0.830004,0.254157,-6.88086,-4.0481,0.178223
1171,-3.72541e-37,-0.202039,-0.091306,9.40167,-0.934638,0.112126,3.72388,-4.05371,0.178223
1172,-3.72728e-37,-0.197125,-0.0737601,9.35652,-0.853185,0.186997,-4.7771,-4.052,0.175781
1173,-3.72915e-37,-0.19681,-0.0736099,9.38453,-0.890658,0.160409,-4.62207,-4.05029,0.179199
1174,-3.73102e-37,-0.202812,-0.0815782,9.41116,-0.93702,0.166249,0.632324,-4.0564,0.179199
1175,-3.73289e-37,-0.187712,-0.0710635,9.40776,-0.959765,0.198062,-4.30273,-4.05371,0.177734
1176,-3.73476e-37,-0.196818,-0.06042,9.40759,-0.954386,0.149139,3.82471,-4.05078,0.181152
1177,-3.73662e-37,-0.173507,-0.0856767,9.40057,-0.967526,0.253542,7.44482,-4.05103,0.177246
1178,-3.73849e-37,-0.197976,-0.0825367,9.436,-0.902774,0.14335,1.56787,-4.05005,0.180176
1179,-3.74036e-37,-0.182426,-0.0982729,9.40991,-0.908767,0.164072,5.76367,-4.04907,0.17627
1180,-3.74223e-37,-0.18548,-0.0785597,9.41687,-0.835895,0.199906,-5.73047,-4.04517,0.178223
1181,-3.7441e-37,-0.183985,-0.0876295,9.39709,-0.941554,0.164712,-2.42139,-4.04834,0.179199
1182,-3.74597e-37,-0.186496,-0.0934018,9.37592,-0.970037,0.0657389,-2.79712,-4.04175,0.175293
1183,-3.74783e-37,-0.185352,-0.0807341,9.39485,-0.925673,0.145246,-5.56787,-4.04883,0.179688
1184,-3.7497e-37,-0.210036,-0.080963,9.40375,-0.897062,0.200598,2.97852,-4.04541,0.175781
1185,-3.75157e-37,-0.205823,-0.0895321,9.40639,-1.08074,0.149036,-6.25073,-4.04858,0.178223
1186,-3.75344e-37,-0.198005,-0.0874149,9.42565,-0.876493,0.217759,-6.92871,-4.05127,0.179199
1187,-3.75531e-37,-0.19935,-0.0866138,9.39997,-0.874624,0.0901493,-6.30176,-4.04932,0.177246
1188,-3.75718e-37,-0.183284,-0.0799188,9.38672,-0.968346,0.253312,1.35425,-4.04712,0.179688
1189,-3.75904e-37,-0.184493,-0.0730377,9.42881,-0.872165,0.136972,-5.20264,-4.04761,0.17334
1190,-3.76091e-37,-0.197118,-0.0851331,9.40453,-0.803749,0.139841,-5.72363,-4.05005,0.180176
1191,-3.76398e-37,-0.187111,-0.0838027,9.37359,-0.956692,0.0996009,-1.00854,-4.04565,0.17627
1192,-3.76771e-37,-0.190824,-0.0845466,9.41439,-0.966066,0.104954,-3.32129,-4.04224,0.178223
1193,-3.77145e-37,-0.192941,-0.080212,9.40042,-0.850393,0.206745,-1.26709,-4.04834,0.179688
1194,-3.77519e-37,-0.188076,-0.0717073,9.42617,-0.862149,0.203953,4.45312,-4.0498,0.175293
1195,-3.77892e-37,-0.204378,-0.0804051,9.38938,-0.898675,0.146142,0.670166,-4.04541,0.181152
1196,-3.78266e-37,-0.206138,-0.0872074,9.39956,-0.878133,0.192068,3.24731,-4.05054,0.174316
1197,-3.7864e-37,-0.189872,-0.0736242,9.40228,-0.971676,0.227032,0.986572,-4.04688,0.178223
1198,-3.79013e-37,-0.199915,-0.081757,9.38983,-0.891427,0.226238,-4.15137,-4.04907,0.179199
1199,-3.79387e-37,-0.19965,-0.0966135,9.41731,-0.880233,0.145194,-3.21313,-4.04468,0.178711
1200,-3.79761e-37,-0.208913,-0.073188,9.38397,-0.831361,0.158104,-2.74243,-4.04346,0.181152
1201,-3.80134e-37,-0.195859,-0.079318,9.39087,-0.96745,0.22716,1.25244,-4.04956,0.177002
1202,-3.80508e-37,-0.208985,-0.0644113,9.38394,-0.959612,0.28077,-0.00512695,-4.05078,0.178711
1203,-3.80882e-37,-0.203649,-0.0775011,9.41552,-0.954771,0.15754,7.18018,-4.04932,0.177246
1204,-3.81255e-37,-0.195044,-0.0839672,9.39631,-0.861663,0.143273,1.56738,-4.04956,0.178223
1205,-3.81629e-37,-0.188799,-0.0949182,9.40412,-1.03464,0.161178,6.71094,-4.05151,0.179688
1206,-3.82003e-37,-0.206395,-0.061772,9.40749,-0.959791,0.335611,6.55176,-4.05029,0.176758
1207,-3.82376e-37,-0.197433,-0.0896609,9.39409,-0.896447,0.153314,-5.67456,-4.04785,0.178711
1208,-3.8275e-37,-0.219528,-0.0757844,9.38678,-0.876878,0.187483,-3.63013,-4.04663,0.174805
1209,-3.83124e-37,-0.209099,-0.0851546,9.37639,-0.90636,0.178903,2.66675,-4.04785,0.177246
1210,-3.83497e-37,-0.20794,-0.074268,9.39508,-0.887482,0.309714,-4.8833,-4.05103,0.179199
1211,-3.83871e-37,-0.181711,-0.0845609,9.40343,-0.914095,0.169912,-4.89526,-4.04175,0.175781
1212,-3.84245e-37,-0.193986,-0.070806,9.38148,-0.93287,0.0858717,-7.67041,-4.0459,0.178711
1213,-3.84618e-37,-0.191446,-0.0647761,9.38458,-0.965426,0.151444,7.85889,-4.04712,0.175049
1214,-3.84992e-37,-0.179236,-0.082036,9.4008,-0.861074,0.162407,1.72412,-4.04883,0.180664
1215,-3.85366e-37,-0.17935,-0.0671867,9.39411,-1.04924,0.174574,0.82959,-4.04663,0.178223
1216,-3.85739e-37,-0.180245,-0.0745612,9.38384,-0.879465,0.110564,5.49341,-4.04346,0.178711
1217,-3.86113e-37,-0.195745,-0.081149,9.36963,-1.02577,0.198882,-7.61816,-4.04565,0.178223
1218,-3.86487e-37,-0.192884,-0.0859485,9.39326,-0.955744,0.235894,-1.62915,-4.05249,0.176758
1219,-3.8686e-37,-0.186031,-0.0943961,9.42006,-0.949827,0.163637,5.60376,-4.04736,0.178223
1220,-3.87234e-37,-0.181754,-0.0958696,9.40155,-0.898727,0.236432,1.72339,-4.04834,0.17627
1221,-3.87608e-37,-0.205036,-0.0638606,9.40836,-0.906129,0.135128,-1.69141,-4.04492,0.177734
1222,-3.87981e-37,-0.196138,-0.102615,9.3931,-0.885843,0.136076,-1.21387,-4.04907,0.178223
1223,-3.88355e-37,-0.195323,-0.0911201,9.41933,-0.957665,0.158872,-6.30542,-4.04688,0.179688
1224,-3.88729e-37,-0.193427,-0.0782593,9.41426,-0.947573,0.144195,-5.98633,-4.0498,0.180176
1225,-3.89102e-37,-0.206052,-0.0791104,9.40107,-0.936328,0.0871524,-0.684814,-4.05249,0.176758
1226,-3.89476e-37,-0.21598,-0.0800475,9.4139,-0.942143,0.251007,0.0419922,-4.04639,0.179688
1227,-3.8985e-37,-0.19558,-0.0910771,9.43315,-0.90262,0.203057,-0.894775,-4.05249,0.17627
1228,-3.90223e-37,-0.194922,-0.0843392,9.43075,-0.941759,0.236791,6.9165,-4.04858,0.177734
1229,-3.90597e-37,-0.201875,-0.0817928,9.40153,-0.89176,0.150701,7.91406,-4.04883,0.178711
1230,-3.90971e-37,-0.200859,-0.0765353,9.39704,-0.905976,0.249239,5.76099,-4.04712,0.174805
1231,-3.91344e-37,-0.191539,-0.0911987,9.38388,-0.971906,0.264787,3.03638,-4.04956,0.179199
1232,-3.91718e-37,-0.173442,-0.0798615,9.39007,-0.923316,0.165686,-7.14551,-4.0459,0.174805
1233,-3.92092e-37,-0.199636,-0.081385,9.39316,-0.909305,0.153237,2.77734,-4.05225,0.179199
1234,-3.92465e-37,-0.197404,-0.0577593,9.39176,-0.928567,0.17775,5.59888,-4.04395,0.178711
1235,-3.92839e-37,-0.193878,-0.068467,9.41811,-0.906078,0.140994,-5.35742,-4.04932,0.175781
1236,-3.93213e-37,-0.184744,-0.0703625,9.4182,-0.835459,0.0359496,-6.20288,-4.04492,0.179688
1237,-3.93586e-37,-0.184006,-0.0809774,9.38507,-0.904746,0.136742,0.879639,-4.04492,0.175049
1238,-3.9396e-37,-0.18204,-0.0867854,9.39177,-0.833667,0.135666,-4.20972,-4.04443,0.181152
1239,-3.94334e-37,-0.198485,-0.0969281,9.41034,-0.871114,0.149523,5.87256,-4.052,0.176514
1240,-3.94707e-37,-0.191517,-0.0906194,9.39316,-1.0425,0.221806,-4.56665,-4.05249,0.178223
1241,-3.95081e-37,-0.199772,-0.083724,9.38136,-0.871217,0.222524,-4.3562,-4.05298,0.178711
1242,-3.95455e-37,-0.184407,-0.0724941,9.40976,-0.813815,0.157131,1.46509,-4.05151,0.176758
1243,-3.95828e-37,-0.201403,-0.0764997,9.37919,-0.882897,0.311379,-2.57666,-4.05005,0.180664
1244,-3.96202e-37,-0.191288,-0.0560711,9.37002,-0.87657,0.236458,5.18848,-4.05078,0.175781
1245,-3.96576e-37,-0.213105,-0.0726872,9.40039,-0.917937,0.202007,4.97412,-4.04736,0.177246
1246,-3.96949e-37,-0.202125,-0.0734454,9.39513,-0.940888,0.0778545,7.22876,-4.04663,0.179688
1247,-3.97323e-37,-0.189321,-0.0834665,9.37909,-0.936123,0.185152,-1.21826,-4.04565,0.175293
1248,-3.97697e-37,-0.199114,-0.0859629,9.3898,-0.835383,0.166557,0.203613,-4.04956,0.181641
1249,-3.9807e-37,-0.177505,-0.0958623,9.38136,-0.840096,0.291477,-0.165283,-4.04858,0.175781
1250,-3.98444e-37,-0.199264,-0.0645473,9.39376,-0.886252,0.156388,-2.21582,-4.04492,0.179199
1251,-3.98818e-37,-0.194793,-0.0830088,9.42253,-0.758412,0.210203,4.6062,-4.04663,0.177246
1252,-3.99191e-37,-0.197511,-0.110268,9.38648,-0.906129,0.237303,7.8186,-4.05615,0.175293
1253,-3.99565e-37,-0.175516,-0.0685815,9.38303,-0.96996,0.0966041,-2.73071,-4.05225,0.179688
1254,-3.99939e-37,-0.189286,-0.0834951,9.39715,-0.906539,0.234665,2.92603,-4.04565,0.175781
1255,-4.00312e-37,-0.19945,-0.072637,9.41754,-0.928337,0.217478,0.048584,-4.05127,0.179688
1256,-4.00686e-37,-0.190094,-0.0951113,9.42902,-0.877083,0.194169,1.30591,-4.05029,0.174316
1257,-4.0106e-37,-0.197154,-0.105776,9.40125,-0.884485,0.11333,7.7041,-4.04883,0.180176
1258,-4.01433e-37,-0.197597,-0.0778873,9.40615,-0.819118,0.159974,-0.169189,-4.04565,0.177734
1259,-4.01807e-37,-0.197326,-0.0789816,9.39501,-0.865812,0.203492,2.77271,-4.04883,0.177734
1260,-4.02181e-37,-0.194414,-0.0794682,9.40448,-0.907333,0.283357,-3.99463,-4.04883,0.179688
1261,-4.02554e-37,-0.178599,-0.0916637,9.40482,-0.940606,0.188815,7.65942,-4.05493,0.176758
1262,-4.02928e-37,-0.201925,-0.0716858,9.40419,-0.968705,0.188098,3.97974,-4.04907,0.181641
1263,-4.03302e-37,-0.202955,-0.0837598,9.41162,-0.993653,0.184307,0.248779,-4.04443,0.178223
1264,-4.03675e-37,-0.192619,-0.0749689,9.39312,-0.979642,0.102649,5.23926,-4.04956,0.177246
1265,-4.04049e-37,-0.19048,-0.0836096,9.40493,-0.842683,0.176649,-0.531494,-4.04932,0.179688
1266,-4.04423e-37,-0.184457,-0.097336,9.38433,-0.870039,0.253158,7.49878,-4.05225,0.174316
1267,-4.04796e-37,-0.18249,-0.0618077,9.39062,-0.842836,0.250059,-7.14062,-4.0498,0.181152
1268,-4.0517e-37,-0.203033,-0.0835309,9.4071,-0.906437,0.241427,4.34766,-4.04932,0.174316
1269,-4.05544e-37,-0.205201,-0.0777443,9.38595,-0.899341,0.206131,-3.36279,-4.05029,0.177734
1270,-4.05917e-37,-0.189286,-0.0853692,9.41493,-0.828825,0.153442,-2.84399,-4.04639,0.177246
1271,-4.06291e-37,-0.188127,-0.0833163,9.37461,-0.875597,0.318142,-4.57764,-4.04419,0.175781
1272,-4.06665e-37,-0.20769,-0.0761204,9.36447,-0.928004,0.248727,-0.428711,-4.04785,0.180664
1273,-4.07038e-37,-0.212289,-0.0876724,9.36631,-1.05526,0.246114,-1.90308,-4.04346,0.177246
1274,-4.07412e-37,-0.200001,-0.0993458,9.40385,-1.06586,0.195244,-0.955322,-4.04639,0.180176
1275,-4.07786e-37,-0.188814,-0.0893104,9.44507,-0.954105,0.109053,-5.82764,-4.05103,0.178711
1276,-4.08159e-37,-0.171954,-0.0868641,9.42564,-0.863763,0.180568,-0.37793,-4.04663,0.174316
1277,-4.08533e-37,-0.206095,-0.0834379,9.42567,-0.855746,0.17214,-3.37207,-4.04346,0.180176
1278,-4.08907e-37,-0.183013,-0.0554417,9.43863,-0.924546,0.193323,1.46094,-4.04858,0.175781
1279,-4.0928e-37,-0.178735,-0.097107,9.41503,-0.747987,0.11771,-4.51904,-4.04883,0.179688
1280,-4.09654e-37,-0.196124,-0.10102,9.39556,-0.700959,0.390707,-4.04443,-4.05054,0.174316
1281,-4.10028e-37,-0.197268,-0.0908697,9.41788,-0.559953,0.38666,6.80371,-4.04224,0.177734
1282,-4.10401e-37,-0.190874,-0.0697688,9.40507,-0.536669,0.373007,3.71191,-4.04492,0.179688
1283,-4.10775e-37,-0.202468,-0.0746971,9.37621,-0.605521,0.433918,2.24536,-4.04639,0.17627
1284,-4.11149e-37,-0.1896,-0.0780591,9.41323,-0.626166,0.36563,6.6543,-4.04834,0.180176
1285,-4.11522e-37,-0.193341,-0.0726514,9.38448,-0.854773,0.296984,4.76099,-4.04492,0.176758
1286,-4.11896e-37,-0.199064,-0.077594,9.39112,-0.859153,0.230925,-4.89648,-4.04126,0.181152
1287,-4.1227e-37,-0.19048,-0.0912774,9.39473,-0.825649,0.190583,-2.99658,-4.04956,0.177002
1288,-4.12643e-37,-0.20726,-0.0763925,9.38597,-0.700293,0.281436,3.8689,-4.04468,0.17627
1289,-4.13017e-37,-0.19181,-0.091392,9.40432,-0.784231,0.179056,7.02563,-4.05151,0.177734
1290,-4.13391e-37,-0.192833,-0.0636818,9.37768,-0.71392,0.376849,4.92114,-4.04663,0.176758
1291,-4.13764e-37,-0.210537,-0.0737458,9.41661,-0.829158,0.268809,-3.78418,-4.04883,0.179688
1292,-4.14138e-37,-0.213284,-0.0769859,9.39388,-0.732746,0.249854,1.40356,-4.04443,0.176025
1293,-4.14512e-37,-0.196703,-0.0824581,9.4009,-0.848856,0.25782,4.86597,-4.04492,0.179199
1294,-4.14885e-37,-0.201217,-0.0647404,9.39663,-0.700165,0.2528,5.4436,-4.04517,0.178223
1295,-4.15259e-37,-0.205172,-0.0859915,9.41346,-0.878799,0.139943,3.44995,-4.04517,0.17627
1296,-4.15633e-37,-0.203176,-0.0592613,9.40534,-0.787202,0.281821,1.08618,-4.04248,0.180664
1297,-4.16006e-37,-0.188041,-0.0406925,9.41283,-0.947394,0.253594,-0.852783,-4.04443,0.175537
1298,-4.1638e-37,-0.172183,-0.0894249,9.44023,-0.822345,0.216735,7.44165,-4.04858,0.181152
1299,-4.16754e-37,-0.204071,-0.0918568,9.36678,-0.939351,0.185204,-0.171387,-4.04419,0.177002
1300,-4.17127e-37,-0.184379,-0.0795253,9.45697,-0.779288,0.182514,-7.88159,-4.04443,0.176758
1301,-4.17501e-37,-0.180745,-0.0679878,9.37558,-0.824932,0.25969,-3.427,-4.04126,0.180176
1302,-4.17875e-37,-0.212253,-0.0834809,9.4114,-0.936328,0.2893,6.13037,-4.04883,0.174316
1303,-4.18248e-37,-0.183513,-0.079933,9.4073,-0.761101,0.214839,7.01343,-4.04224,0.176758
1304,-4.18622e-37,-0.18817,-0.0596762,9.39977,-0.892938,0.199701,6.54565,-4.04541,0.175781
1305,-4.18996e-37,-0.196703,-0.0722582,9.37155,-0.777494,0.398032,5.82471,-4.05566,0.177734
