timestamp_ms,acc_x,acc_y,acc_z,gyr_x,gyr_y,gyr_z,mag_x,mag_y,mag_z
0,-8.29604e-39,0,0,0,0,0,0,0,-0.243408
1,-8.30772e-39,-0.0605436,-0.273198,9.98504,-0.721297,-0.713177,3.5249,4.0105,-0.244385
2,-8.3194e-39,-0.0666573,-0.289317,9.9905,-0.859025,-0.726164,7.69507,4.01074,-0.241699
3,-8.33108e-39,-0.0767106,-0.297834,10.0308,-0.860638,-0.729442,-4.2666,4.01147,-0.241943
4,-8.34275e-39,-0.0519832,-0.304498,9.95563,-0.772167,-0.760692,-4.18726,4.01099,-0.245117
5,-8.35443e-39,-0.0475825,-0.290645,10.0307,-0.716302,-0.670606,-4.08179,4.0105,-0.240967
6,-8.36611e-39,-0.0577578,-0.300754,9.96109,-0.770604,-0.768837,0.24707,4.01001,-0.245605
7,-8.37778e-39,-0.0475678,-0.290965,9.99585,-0.82944,-0.685181,5.25586,4.0105,-0.241943
8,-8.38946e-39,-0.0557221,-0.282914,10.0215,-0.673885,-0.764149,4.47021,4.00977,-0.243408
9,-8.40114e-39,-0.0763716,-0.284163,10.0178,-0.775497,-0.777059,-7.5708,4.01099,-0.248047
10,-8.41281e-39,-0.0737733,-0.296168,9.98298,-0.729212,-0.629675,-1.77515,4.01172,-0.243408
11,-8.42449e-39,-0.062291,-0.313495,10.0086,-0.784948,-0.594993,-0.381836,4.00952,-0.249512
12,-8.43617e-39,-0.06333,-0.305363,9.98475,-0.722911,-0.68869,-0.645264,4.01001,-0.240967
13,-8.44785e-39,-0.0513036,-0.284494,9.99756,-0.695017,-0.687102,6.0957,4.01025,-0.243896
14,-8.45952e-39,-0.0372023,-0.271241,9.99753,-0.704878,-0.711768,3.28784,4.01147,-0.24707
15,-8.4712e-39,-0.0513802,-0.297464,9.99201,-0.719862,-0.75585,-7.38599,4.01001,-0.242432
16,-8.48288e-39,-0.0594281,-0.289275,10.0177,-0.632979,-0.761127,5.96436,4.01025,-0.243164
17,-8.49455e-39,-0.0494297,-0.306791,10.0158,-0.752572,-0.732772,-6.521,4.01025,-0.244385
18,-8.50623e-39,-0.0558145,-0.305935,10.0121,-0.672041,-0.680596,7.87939,4.00977,-0.245605
19,-8.51791e-39,-0.069366,-0.282959,9.99199,-0.777597,-0.824394,-6.41455,4.00928,-0.244385
20,-8.52958e-39,-0.0534976,-0.269557,10.0048,-0.749498,-0.78523,-4.02856,4.01001,-0.24585
21,-8.54126e-39,-0.0635705,-0.285195,9.99743,-0.769247,-0.771885,6.51733,4.0083,-0.245605
22,-8.55294e-39,-0.0426486,-0.308433,9.99547,-0.783872,-0.771936,-6.41528,4.00977,-0.241455
23,-8.56462e-39,-0.0542674,-0.289324,10.0083,-0.813098,-0.721041,6.98706,4.0105,-0.245605
24,-8.57629e-39,-0.0442275,-0.307144,10.0375,-0.739406,-0.709796,-3.60742,4.00854,-0.245361
25,-8.58797e-39,-0.0361377,-0.311875,10.0063,-0.79171,-0.678342,1.55981,4.00879,-0.245361
26,-8.59965e-39,-0.0530931,-0.300298,9.99176,-0.836663,-0.852109,-5.10571,4.01123,-0.246582
27,-8.61132e-39,-0.0650127,-0.286307,9.98449,-0.765738,-0.739201,-1.24731,4.00928,-0.242432
28,-8.623e-39,-0.0785885,-0.274405,9.98273,-0.77501,-0.635873,-6.88623,4.00903,-0.250488
29,-8.63468e-39,-0.0612111,-0.283098,10.0211,-0.670632,-0.743146,7.74854,4.00977,-0.243896
30,-8.64635e-39,-0.0527617,-0.269475,10.0138,-0.701753,-0.757848,-7.62329,4.01099,-0.243652
31,-8.65803e-39,-0.0394685,-0.30903,10.0007,-0.649577,-0.781004,-1.61572,4.00977,-0.243164
32,-8.66971e-39,-0.0309035,-0.297371,10.019,-0.729673,-0.727905,-1.14185,4.00879,-0.241455
33,-8.68139e-39,-0.0591807,-0.283244,9.99171,-0.727829,-0.723167,-1.4585,4.01025,-0.250488
34,-8.69306e-39,-0.0747106,-0.299032,9.99168,-0.771373,-0.650935,2.60449,4.01221,-0.241455
35,-8.70474e-39,-0.0592332,-0.289075,10.0081,-0.753981,-0.713177,-0.59375,4.0105,-0.246094
36,-8.71642e-39,-0.0526704,-0.281051,9.99714,-0.776137,-0.811254,-4.7627,4.00977,-0.24292
37,-8.72809e-39,-0.0496573,-0.276747,10.0136,-0.755748,-0.732823,5.28223,4.0105,-0.24585
38,-8.73977e-39,-0.0341738,-0.285362,10.0062,-0.744683,-0.775445,0.233887,4.01001,-0.243652
39,-8.75145e-39,-0.0423482,-0.282596,10.0044,-0.703751,-0.579087,3.07935,4.01025,-0.241943
40,-8.76313e-39,-0.0432746,-0.289365,9.9805,-0.808104,-0.722603,-3.05933,4.01074,-0.244629
41,-8.7748e-39,-0.0682547,-0.304721,9.98603,-0.773191,-0.668865,-1.43359,4.01123,-0.241943
42,-8.78648e-39,-0.0604759,-0.312824,9.97312,-0.66264,-0.741609,7.04126,4.00903,-0.246582
43,-8.79816e-39,-0.0629124,-0.302839,9.98964,-0.734693,-0.721194,7.40918,4.00854,-0.241699
44,-8.80983e-39,-0.0764866,-0.299979,10.0025,-0.669249,-0.744836,5.38916,4.00903,-0.245361
45,-8.82151e-39,-0.0624304,-0.279094,9.98424,-0.680135,-0.700626,-7.30762,4.01001,-0.244629
46,-8.83319e-39,-0.0577813,-0.289547,10.0299,-0.749268,-0.737767,5.33472,4.0105,-0.244385
47,-8.84486e-39,-0.038273,-0.278142,10.0317,-0.711435,-0.728366,7.69507,4.01074,-0.247559
48,-8.85654e-39,-0.0375107,-0.284596,10.0243,-0.631545,-0.601243,-2.24609,4.0105,-0.243408
49,-8.86822e-39,-0.0406585,-0.300047,10.0133,-0.753417,-0.81963,-3.26855,4.01025,-0.243652
50,-8.8799e-39,-0.0326508,-0.312154,9.99848,-0.68764,-0.644966,-3.05933,4.01074,-0.245117
51,-8.89157e-39,-0.0736611,-0.301265,9.99327,-0.715662,-0.798626,-4.89404,4.00977,-0.240967
52,-8.90325e-39,-0.048902,-0.308345,10.0022,-0.758028,-0.786844,5.25586,4.0105,-0.244141
53,-8.91493e-39,-0.0638883,-0.287054,9.9951,-0.740917,-0.868937,4.15454,4.01025,-0.241943
54,-8.9266e-39,-0.0498805,-0.301674,10.0151,-0.768299,-0.701728,-3.11279,4.01172,-0.245117
55,-8.93828e-39,-0.048636,-0.274915,10.0115,-0.685591,-0.76146,7.61621,4.01074,-0.243408
56,-8.94996e-39,-0.0373355,-0.301688,9.99481,-0.713356,-0.75457,4.3374,4.01074,-0.243408
57,-8.96163e-39,-0.0416854,-0.312135,9.99475,-0.781362,-0.819348,-2.3772,4.0105,-0.247559
58,-8.97331e-39,-0.0408711,-0.299917,9.9765,-0.68057,-0.60237,-5.20923,4.01001,-0.24292
59,-8.98499e-39,-0.0506796,-0.291585,9.99676,-0.657594,-0.748678,-0.82959,4.0105,-0.245605
60,-8.99667e-39,-0.0556115,-0.307024,9.99118,-0.716328,-0.725037,7.82593,4.01074,-0.241455
61,-9.00834e-39,-0.0654291,-0.298609,9.99128,-0.706287,-0.708772,1.13794,4.01074,-0.244385
62,-9.02002e-39,-0.0622968,-0.298248,9.99857,-0.743965,-0.713331,1.16333,4.01123,-0.245605
63,-9.0317e-39,-0.0630384,-0.291877,10.0371,-0.802135,-0.764892,-7.09814,4.0105,-0.239014
64,-9.04337e-39,-0.0718603,-0.314689,10.0296,-0.734949,-0.639485,-4.2915,4.01025,-0.249023
65,-9.05505e-39,-0.045033,-0.307329,9.99835,-0.719991,-0.762869,7.64185,4.01123,-0.240479
66,-9.06673e-39,-0.0574212,-0.305585,9.95633,-0.775881,-0.743684,-6.87402,4.00952,-0.246582
67,-9.0784e-39,-0.0473757,-0.259846,10.0317,-0.775676,-0.629265,2.52759,4.01099,-0.240479
68,-9.09008e-39,-0.0655131,-0.301164,10.0516,-0.704161,-0.692814,-7.44116,4.01196,-0.242432
69,-9.10176e-39,-0.052062,-0.290921,10.015,-0.666662,-0.694735,-0.646484,4.01099,-0.246582
70,-9.11344e-39,-0.0627005,-0.306021,9.99111,-0.662461,-0.727342,-2.29785,4.01001,-0.239502
71,-9.12511e-39,-0.0627395,-0.283321,10.0133,-0.706953,-0.739765,-4.63159,4.00977,-0.245605
72,-9.13679e-39,-0.0415819,-0.290713,10.0075,-0.766916,-0.719683,-0.437256,4.01147,-0.241943
73,-9.14847e-39,-0.0315841,-0.28442,10.002,-0.836612,-0.737716,-5.65381,4.00928,-0.240967
74,-9.16014e-39,-0.0524615,-0.27571,9.99125,-0.803493,-0.623732,-5.48462,4.01025,-0.241699
75,-9.17182e-39,-0.0570607,-0.29384,10.0277,-0.813995,-0.681185,-7.57129,4.01123,-0.240967
76,-9.1835e-39,-0.0658561,-0.305322,10.0295,-0.754339,-0.842555,-1.61597,4.01025,-0.245605
77,-9.19517e-39,-0.0682684,-0.296877,10.0113,-0.524375,-0.804953,1.03345,4.01001,-0.23999
78,-9.20685e-39,-0.0551998,-0.318064,10,-0.595813,-0.682978,-4.34546,4.01147,-0.245117
79,-9.21853e-39,-0.0680342,-0.294825,10.015,-0.637128,-0.775292,5.93872,4.00977,-0.243164
80,-9.23021e-39,-0.0596536,-0.286664,9.98933,-0.825291,-0.757618,-6.67798,4.01001,-0.240967
81,-9.24188e-39,-0.0715214,-0.293021,10.0077,-0.725831,-0.703726,0.547119,4.01099,-0.244629
82,-9.25356e-39,-0.0482924,-0.28562,10.0075,-0.691661,-0.804031,3.47314,4.01001,-0.241943
83,-9.26524e-39,-0.0522232,-0.275514,10.0187,-0.636488,-0.831054,4.9165,4.00952,-0.245117
84,-9.27691e-39,-0.0357998,-0.308055,10.009,-0.747936,-0.842555,-4.92065,4.01025,-0.242432
85,-9.28859e-39,-0.0561389,-0.299495,10.0001,-0.774421,-0.778442,6.3042,4.01123,-0.244873
86,-9.30027e-39,-0.0565647,-0.289581,10.0057,-0.720989,-0.720324,4.67798,4.01123,-0.239014
87,-9.31194e-39,-0.0619763,-0.308479,10.0166,-0.700934,-0.691021,6.48828,4.01074,-0.243408
88,-9.32362e-39,-0.0582813,-0.287826,10.0039,-0.773678,-0.735897,7.35303,4.01147,-0.243652
89,-9.3353e-39,-0.062808,-0.283024,10.015,-0.769631,-0.756773,-0.881104,4.00977,-0.23999
90,-9.34698e-39,-0.0528979,-0.287934,10.002,-0.654674,-0.745656,4.53589,4.00977,-0.244141
91,-9.35865e-39,-0.0446745,-0.28345,9.98183,-0.726522,-0.657799,-4.09546,4.01074,-0.243896
92,-9.37033e-39,-0.0473674,-0.295861,10.0312,-0.747449,-0.714663,6.80371,4.01025,-0.24585
93,-9.38201e-39,-0.0279115,-0.288337,10.0201,-0.74622,-0.744298,3.15723,4.01074,-0.243164
94,-9.39368e-39,-0.0436116,-0.290461,10.0074,-0.685002,-0.724345,7.93042,4.01123,-0.23999
95,-9.40536e-39,-0.0589257,-0.298669,10.0258,-0.726292,-0.75165,0.270264,4.01196,-0.246582
96,-9.41704e-39,-0.0635315,-0.293679,10.0204,-0.79043,-0.798703,-1.58813,4.00903,-0.241943
97,-9.42872e-39,-0.0559406,-0.276985,10.0241,-0.662922,-0.770732,-6.75806,4.01123,-0.243896
98,-9.44039e-39,-0.0516251,-0.277803,10.0222,-0.746476,-0.742403,-0.802246,4.00977,-0.241211
99,-9.45207e-39,-0.050923,-0.286209,10.024,-0.719427,-0.690201,3.68408,4.00928,-0.242432
100,-9.46375e-39,-0.0577557,-0.288411,9.99288,-0.721758,-0.744708,0.678955,4.0105,-0.244629
101,-9.47542e-39,-0.0601367,-0.28391,10.0021,-0.762305,-0.729263,-5.8396,4.01074,-0.241455
102,-9.4871e-39,-0.0573968,-0.287008,9.9819,-0.78605,-0.721246,4.93823,4.0127,-0.244141
103,-9.49878e-39,-0.0421232,-0.297812,10.0054,-0.698039,-0.839763,-4.76123,4.00879,-0.243652
104,-9.51045e-39,-0.0735297,-0.292268,10.0058,-0.723448,-0.692737,-2.66724,4.01172,-0.243408
105,-9.52213e-39,-0.0618461,-0.282067,9.97102,-0.76114,-0.738855,7.78784,4.01001,-0.246094
106,-9.53381e-39,-0.0638047,-0.266555,9.97671,-0.657825,-0.659029,2.63354,4.01001,-0.239014
107,-9.54549e-39,-0.0481486,-0.273982,10.0076,-0.711,-0.781106,1.24243,4.01074,-0.242676
108,-9.55716e-39,-0.0578564,-0.274799,10.0278,-0.760666,-0.792914,5.80762,4.01001,-0.240967
109,-9.56884e-39,-0.0587674,-0.273903,9.99306,-0.780363,-0.66848,-4.55542,4.01147,-0.244873
110,-9.58052e-39,-0.0361529,-0.321589,10.0069,-0.699986,-0.791044,-3.79297,4.01001,-0.244629
111,-9.59219e-39,-0.0643847,-0.317561,9.99624,-0.815737,-0.745528,2.42505,4.00928,-0.240479
112,-9.60387e-39,-0.105636,-0.278281,9.99722,-0.681416,-0.709873,-6.94141,4.01099,-0.244141
113,-9.61555e-39,-0.0556818,-0.294378,9.98361,-0.673834,-0.825188,6.4082,4.01196,-0.240967
114,-9.62722e-39,-0.0550423,-0.298789,9.98903,-0.718889,-0.766275,-6.15454,4.01074,-0.247559
115,-9.6389e-39,-0.043706,-0.276509,9.99651,-0.626089,-0.79796,-0.200439,4.01074,-0.238281
116,-9.65058e-39,-0.0396999,-0.294139,10.0017,-0.679494,-0.758822,-2.84888,4.01025,-0.243896
117,-9.66226e-39,-0.0250328,-0.279333,9.97976,-0.774907,-0.85362,-5.49902,4.01099,-0.248047
118,-9.67393e-39,-0.0502872,-0.286137,9.97633,-0.702957,-0.786306,-0.357422,4.0105,-0.240967
119,-9.68561e-39,-0.060555,-0.294005,9.98185,-0.6672,-0.657517,6.17383,4.0105,-0.243164
120,-9.69729e-39,-0.0527977,-0.298637,9.95789,-0.691635,-0.858692,-0.93457,4.0105,-0.23999
121,-9.70896e-39,-0.0629827,-0.31422,9.99261,-0.74654,-0.688549,5.66211,4.01074,-0.244385
122,-9.72064e-39,-0.0496405,-0.28279,9.98186,-0.808513,-0.724294,0.994873,4.00977,-0.242188
123,-9.73232e-39,-0.0563115,-0.304317,10.0091,-0.69412,-0.773883,2.90698,4.01172,-0.242432
124,-9.74399e-39,-0.0578818,-0.291016,10.0423,-0.746091,-0.680596,-6.99414,4.01123,-0.24707
125,-9.75567e-39,-0.0552469,-0.268919,9.97482,-0.703136,-0.719043,4.4165,4.0105,-0.242432
126,-9.76735e-39,-0.056645,-0.290569,9.99651,-0.709975,-0.624398,3.18213,4.01196,-0.241699
127,-9.77903e-39,-0.0537588,-0.290005,10.0056,-0.739381,-0.67929,-1.11914,4.01147,-0.241211
128,-9.7907e-39,-0.0323872,-0.294439,10.0383,-0.795975,-0.705531,5.92383,4.01123,-0.241943
129,-9.80238e-39,-0.0529705,-0.310335,10.0182,-0.73541,-0.750779,1.21753,4.01001,-0.246582
130,-9.81406e-39,-0.0522428,-0.284128,10.0094,-0.84486,-0.76689,-0.175293,4.01172,-0.239502
131,-9.82573e-39,-0.0611428,-0.262708,10.03,-0.7089,-0.635643,4.15332,4.01123,-0.248535
132,-9.83741e-39,-0.083994,-0.287768,10.0006,-0.790891,-0.685667,3.70825,4.0105,-0.240479
133,-9.84909e-39,-0.0688231,-0.254411,9.97342,-0.773268,-0.756414,4.83716,4.01001,-0.24292
134,-9.86076e-39,-0.0379066,-0.306087,10.0675,-0.71538,-0.80234,6.5415,4.01025,-0.242676
135,-9.87244e-39,-0.0712094,-0.313524,10.0037,-0.66492,-0.695503,-3.97656,4.01025,-0.243896
136,-9.88412e-39,-0.0574987,-0.287968,10.0094,-0.628484,-0.708733,0.467041,4.01196,-0.245117
137,-9.8958e-39,-0.0694536,-0.31336,9.99089,-0.769938,-0.820629,2.60693,4.0105,-0.241943
138,-9.90747e-39,-0.069233,-0.305764,10.0258,-0.782464,-0.728162,-3.17603,4.00977,-0.24707
139,-9.91915e-39,-0.0677941,-0.284187,9.9785,-0.724947,-0.652356,-0.342285,4.00903,-0.241455
140,-9.93083e-39,-0.0542681,-0.289636,9.98188,-0.767236,-0.781401,6.34448,4.0105,-0.241943
141,-9.9425e-39,-0.0427097,-0.2772,9.99657,-0.78094,-0.80745,-0.580566,4.01074,-0.243164
142,-9.95418e-39,-0.0524262,-0.270227,9.9895,-0.736486,-0.702624,3.11646,4.01196,-0.240479
143,-9.96586e-39,-0.038866,-0.273788,10.0057,-0.759001,-0.658542,-6.15356,4.01025,-0.244141
144,-9.97754e-39,-0.0364193,-0.305838,9.96673,-0.723564,-0.706197,5.58228,4.01172,-0.240967
145,-9.98921e-39,-0.033323,-0.309316,9.99775,-0.718671,-0.701228,-0.240234,4.01123,-0.241943
146,-1.00009e-38,-0.0670763,-0.304515,10.0075,-0.721591,-0.725177,5.68872,4.01025,-0.243896
147,-1.00126e-38,-0.0626677,-0.303586,9.98733,-0.674538,-0.726048,7.21167,4.00928,-0.240479
148,-1.00242e-38,-0.079783,-0.305731,9.98939,-0.822294,-0.765353,4.3894,4.01123,-0.245605
149,-1.00359e-38,-0.0579353,-0.316844,9.97788,-0.917527,-0.632236,6.55542,4.00977,-0.239014
150,-1.00476e-38,-0.0554501,-0.282852,9.95093,-0.702265,-0.74581,-5.65625,4.01074,-0.239258
151,-1.00593e-38,-0.0269488,-0.25843,9.97655,-0.748294,-0.526193,-2.48193,4.0105,-0.241699
152,-1.0071e-38,-0.0264094,-0.309945,10.0343,-0.729955,-0.723218,3.39429,4.01001,-0.241943
153,-1.00826e-38,-0.0317648,-0.280457,9.98725,-0.63782,-0.71789,0.0895996,4.01025,-0.243164
154,-1.00943e-38,-0.0633152,-0.279912,10.0153,-0.805081,-0.665355,-2.21924,4.01025,-0.23999
155,-1.0106e-38,-0.0714765,-0.313754,10.0313,-0.709771,-0.759923,2.94849,4.01001,-0.243652
156,-1.01177e-38,-0.0606924,-0.302367,10.024,-0.619839,-0.721911,-4.2915,4.01025,-0.24585
157,-1.01293e-38,-0.0612266,-0.297669,10.0058,-0.695683,-0.751266,-2.35156,4.01123,-0.24292
158,-1.0141e-38,-0.0572527,-0.300168,9.97454,-0.689689,-0.718659,1.2417,4.01147,-0.242188
159,-1.01527e-38,-0.0470395,-0.288226,10.035,-0.870935,-0.781388,-6.78345,4.0105,-0.240967
160,-1.01644e-38,-0.045367,-0.297926,10.0184,-0.658132,-0.799753,-6.31177,4.01074,-0.243164
161,-1.0176e-38,-0.0355569,-0.285171,10.0276,-0.64211,-0.820257,-5.04028,4.01123,-0.238525
162,-1.01877e-38,-0.0460403,-0.282981,10.0095,-0.733464,-0.69914,1.13696,4.01123,-0.242676
163,-1.01994e-38,-0.054556,-0.284987,9.99681,-0.64033,-0.810332,-5.76123,4.01099,-0.241699
164,-1.02111e-38,-0.0730885,-0.283218,10.0191,-0.693941,-0.773524,-2.15308,4.00977,-0.239258
165,-1.02228e-38,-0.0558793,-0.279199,9.98413,-0.803109,-0.743479,2.59473,4.00952,-0.246582
166,-1.02344e-38,-0.0681476,-0.28494,9.98242,-0.806554,-0.671951,-7.05908,4.01074,-0.239014
167,-1.02461e-38,-0.0792214,-0.287975,10.0137,-0.75229,-0.818144,-0.515625,4.01074,-0.244629
168,-1.02578e-38,-0.0617118,-0.266616,10.0303,-0.824599,-0.776521,-1.95825,4.01099,-0.241455
169,-1.02695e-38,-0.0453206,-0.297265,9.99831,-0.735334,-0.59361,4.12842,4.01025,-0.244873
170,-1.02811e-38,-0.0525867,-0.283145,10.0024,-0.725216,-0.731799,7.82666,4.01025,-0.246826
171,-1.02928e-38,-0.0626832,-0.285223,9.98787,-0.635848,-0.735718,-2.56201,4.01172,-0.239502
172,-1.03045e-38,-0.0596883,-0.29643,10.0334,-0.807233,-0.74417,7.56372,4.01099,-0.245117
173,-1.03162e-38,-0.0560279,-0.308549,10.0404,-0.742608,-0.65201,6.38501,4.00952,-0.240479
174,-1.03278e-38,-0.0485067,-0.287685,10.0224,-0.741737,-0.746424,3.55054,4.01099,-0.245117
175,-1.03395e-38,-0.0624906,-0.265602,10.0194,-0.674179,-0.772974,7.02686,4.01025,-0.241455
176,-1.03512e-38,-0.0447779,-0.269955,10.0227,-0.732311,-0.763304,4.15332,4.01123,-0.24292
177,-1.03629e-38,-0.0519004,-0.279498,10.03,-0.847114,-0.789764,-3.21582,4.01001,-0.244141
178,-1.03746e-38,-0.0620683,-0.285466,10.0356,-0.70288,-0.835741,-0.828613,4.00977,-0.243408
179,-1.03862e-38,-0.065434,-0.301135,10.0317,-0.77875,-0.774728,-5.52539,4.01099,-0.245117
180,-1.03979e-38,-0.081704,-0.304155,10.0045,-0.785998,-0.717634,5.93604,4.01196,-0.240479
181,-1.04096e-38,-0.0810095,-0.310856,10.0117,-0.751214,-0.756721,2.68335,4.01221,-0.244385
182,-1.04213e-38,-0.0599973,-0.305412,9.99673,-0.679315,-0.747193,3.91748,4.01123,-0.245605
183,-1.04329e-38,-0.0589602,-0.312437,10.0222,-0.747705,-0.663485,7.38135,4.00977,-0.23999
184,-1.04446e-38,-0.0684119,-0.275745,10.0104,-0.690176,-0.808744,7.74756,4.0105,-0.244629
185,-1.04563e-38,-0.0538718,-0.268605,10.0139,-0.667994,-0.687922,-3.74048,4.01001,-0.241943
186,-1.0468e-38,-0.029955,-0.286347,10.0131,-0.844886,-0.78879,5.28125,4.01123,-0.243652
187,-1.04796e-38,-0.0369088,-0.274305,10.041,-0.799164,-0.732413,3.89233,4.01025,-0.244141
188,-1.04913e-38,-0.0739098,-0.280967,10.0013,-0.680596,-0.774908,-7.12476,4.01074,-0.243896
189,-1.0503e-38,-0.0964619,-0.278333,9.98715,-0.706236,-0.771168,-6.05029,4.01147,-0.246094
190,-1.05147e-38,-0.0707583,-0.300003,10.01,-0.688203,-0.80941,5.20239,4.01123,-0.244873
191,-1.05264e-38,-0.0653373,-0.286365,9.99556,-0.743299,-0.715918,2.46045,4.01196,-0.246582
192,-1.0538e-38,-0.0708834,-0.29974,9.99356,-0.734232,-0.7308,-3.57178,4.01147,-0.239502
193,-1.05497e-38,-0.0597047,-0.290876,10.0229,-0.801828,-0.66807,3.98438,4.01001,-0.244385
194,-1.05614e-38,-0.0682043,-0.28503,9.98836,-0.666815,-0.740508,1.79419,4.01001,-0.246338
195,-1.05731e-38,-0.0337568,-0.261416,10.0065,-0.776905,-0.672783,2.73779,4.01074,-0.241943
196,-1.05847e-38,-0.0379365,-0.304335,10.0057,-0.660284,-0.744196,-0.85498,4.01001,-0.246582
197,-1.05964e-38,-0.0387265,-0.285239,10.0061,-0.688229,-0.76356,4.1272,4.01123,-0.241455
198,-1.06081e-38,-0.0637131,-0.265879,10.0071,-0.750497,-0.726983,0.152588,4.01172,-0.245605
199,-1.06198e-38,-0.0636617,-0.281754,10.0178,-0.708925,-0.748013,6.27783,4.01123,-0.23999
200,-1.06314e-38,-0.0467752,-0.285483,10.0137,-0.698014,-0.788867,-1.70776,4.01025,-0.240479
201,-1.06431e-38,-0.0677528,-0.284683,9.99584,-0.765405,-0.733028,-7.30981,4.01172,-0.246094
202,-1.06548e-38,-0.0464807,-0.271541,10.0269,-0.801444,-0.847806,-3.02051,4.01123,-0.239014
203,-1.06665e-38,-0.046887,-0.287194,10.0174,-0.995459,-0.721387,7.12817,4.01294,-0.244141
204,-1.06782e-38,-0.0568038,-0.307729,10.0098,-0.872907,-0.758489,7.16846,4.01196,-0.242432
205,-1.06898e-38,-0.0725729,-0.315082,10.0338,-0.762049,-0.829082,-1.38013,4.01025,-0.242432
206,-1.07015e-38,-0.0579749,-0.302142,10.0008,-0.729698,-0.744503,-2.64087,4.01172,-0.245361
207,-1.07132e-38,-0.064471,-0.302414,10.0083,-0.658491,-0.664382,2.75122,4.0105,-0.239014
208,-1.07249e-38,-0.0686303,-0.275485,10.009,-0.828544,-0.705621,-6.49268,4.00903,-0.246094
209,-1.07365e-38,-0.0638629,-0.275157,10.0126,-0.715713,-0.653624,-0.56665,4.01001,-0.241455
210,-1.07482e-38,-0.0593663,-0.280431,10.0252,-0.713228,-0.712895,3.76123,4.01025,-0.245605
211,-1.07599e-38,-0.0384677,-0.263114,10.0142,-0.861599,-0.697155,0.599609,4.01074,-0.242188
212,-1.07716e-38,-0.0277744,-0.259867,10.0196,-1.00415,-0.807591,5.24268,4.0105,-0.242432
213,-1.07832e-38,-0.0472719,-0.278961,9.99394,-0.699858,-0.73436,-7.75562,4.01172,-0.244141
214,-1.07949e-38,-0.0671258,-0.289496,10.0161,-0.820065,-0.716635,1.68921,4.01025,-0.243408
215,-1.08066e-38,-0.0450506,-0.299736,9.99527,-0.865172,-0.748064,-0.725098,4.01074,-0.245117
216,-1.08183e-38,-0.0528033,-0.272471,10.0034,-0.864711,-0.794861,-7.8584,4.00977,-0.24292
217,-1.083e-38,-0.0719967,-0.289893,9.98332,-0.874239,-0.81881,0.470215,4.00952,-0.244385
218,-1.08416e-38,-0.0648227,-0.298336,10.0343,-0.82506,-0.673475,5.84717,4.00977,-0.243652
219,-1.08533e-38,-0.0355293,-0.287194,9.95146,-0.769388,-0.720541,2.88257,4.01025,-0.24585
220,-1.0865e-38,-0.033246,-0.279697,9.97178,-0.855195,-0.906603,-2.44141,4.00928,-0.243652
221,-1.08767e-38,-0.0457463,-0.27481,10.0583,-0.902761,-0.599027,2.56641,4.01123,-0.24292
222,-1.08883e-38,-0.0843693,-0.291444,10.0185,-0.714381,-0.646785,-1.22388,4.01123,-0.244141
223,-1.09e-38,-0.047763,-0.284658,10.0197,-0.800957,-0.862944,-7.59497,4.00928,-0.244629
224,-1.09117e-38,-0.0485852,-0.293493,10.0287,-0.815865,-0.843221,-7.52002,4.01221,-0.240479
225,-1.09234e-38,-0.037827,-0.284253,10.0122,-0.954591,-0.775804,-7.36182,4.01147,-0.245117
226,-1.09351e-38,-0.0680236,-0.292678,10.0347,-1.07546,-0.844629,-2.20532,4.00977,-0.241943
227,-1.09467e-38,-0.0700552,-0.308683,10.0453,-0.791083,-0.540652,6.23755,4.01196,-0.246094
228,-1.09584e-38,-0.0321061,-0.336096,10.0218,-0.588321,-0.652535,1.5437,4.01123,-0.241943
229,-1.09701e-38,-0.0383239,-0.283943,9.98664,-0.588525,-0.892951,-3.07129,4.01001,-0.243896
230,-1.09818e-38,-0.0318421,-0.277064,10.0142,-0.662576,-0.674359,-0.345947,4.01172,-0.243896
231,-1.09934e-38,-0.0558942,-0.276519,9.98181,-0.686385,-0.675755,0.0749512,4.01099,-0.23999
232,-1.10051e-38,-0.0657523,-0.280854,9.99112,-0.862611,-0.725165,1.74072,4.01099,-0.244629
233,-1.10168e-38,-0.0686844,-0.291462,10.0166,-0.785384,-0.732439,3.98267,4.01147,-0.241455
234,-1.10285e-38,-0.0483656,-0.307705,10.0377,-0.711896,-0.713228,3.23462,4.01196,-0.239746
235,-1.10401e-38,-0.0432616,-0.275235,10.0055,-0.741045,-0.794861,7.72095,4.01099,-0.243652
236,-1.10518e-38,-0.0241528,-0.280047,10.0104,-0.840903,-0.699102,5.18872,4.01196,-0.242432
237,-1.10635e-38,-0.0701014,-0.269303,10.0009,-0.895435,-0.794182,1.43896,4.01099,-0.244629
238,-1.10752e-38,-0.0694287,-0.278117,10.0281,-0.677125,-0.711986,5.63672,4.01025,-0.243896
239,-1.10869e-38,-0.0441045,-0.294383,10.0307,-0.801072,-0.735987,-3.15063,4.0105,-0.246582
240,-1.10985e-38,-0.0306617,-0.306754,9.98793,-0.900225,-0.697565,-7.89673,4.00952,-0.241943
241,-1.11102e-38,-0.0542219,-0.28437,10.0221,-0.654431,-0.633607,-2.91528,4.01123,-0.23999
242,-1.11219e-38,-0.0506967,-0.286588,9.98904,-0.676062,-0.752879,2.68604,4.01001,-0.244629
243,-1.11336e-38,-0.0693016,-0.282218,9.99514,-0.806259,-0.64407,4.36621,4.00903,-0.23999
244,-1.11452e-38,-0.0602516,-0.262478,10.0065,-0.616957,-0.78532,-0.424561,4.01172,-0.245117
245,-1.11569e-38,-0.0418807,-0.292576,9.99973,-0.730531,-0.877582,5.03247,4.01099,-0.239502
246,-1.11686e-38,-0.0355652,-0.302034,10.0323,-0.705211,-0.720861,-5.70801,4.0105,-0.245605
247,-1.11803e-38,-0.0477992,-0.30341,10.0234,-0.780043,-0.738471,2.69873,4.0105,-0.241699
248,-1.11919e-38,-0.0505925,-0.301999,10.0126,-0.714778,-0.684476,-7.55762,4.01074,-0.241699
249,-1.12036e-38,-0.0631465,-0.280624,9.98055,-0.733092,-0.681556,-7.13745,4.01025,-0.242676
250,-1.12153e-38,-0.0549577,-0.28225,10.0317,-0.834192,-0.787574,4.42847,4.01147,-0.240967
251,-1.1227e-38,-0.0653173,-0.279651,10.0045,-0.745643,-0.866338,-5.51318,4.01196,-0.243164
252,-1.12387e-38,-0.0560212,-0.301172,9.99087,-0.748717,-0.640113,2.96069,4.01074,-0.241455
253,-1.12503e-38,-0.0591686,-0.301295,10.0405,-0.767492,-0.723051,-2.18066,4.01074,-0.24585
254,-1.1262e-38,-0.0567812,-0.283668,10.0245,-0.67765,-0.791301,7.44604,4.0105,-0.245605
255,-1.12737e-38,-0.0426135,-0.292707,9.99818,-0.818785,-0.72163,-6.32422,4.01025,-0.243896
256,-1.12854e-38,-0.0396183,-0.296342,10.0145,-0.772436,-0.715905,3.17065,4.0105,-0.245117
257,-1.1297e-38,-0.0423067,-0.295089,10.0092,-0.743248,-0.701523,-2.98071,4.01099,-0.241455
258,-1.13087e-38,-0.0585264,-0.299698,9.98934,-0.742685,-0.754057,-5.39453,4.01099,-0.244873
259,-1.13204e-38,-0.0495074,-0.294249,10.0021,-0.74403,-0.740469,-3.38672,4.0105,-0.246826
260,-1.13321e-38,-0.0674544,-0.282263,9.99015,-0.723833,-0.781874,2.36938,4.01172,-0.241455
261,-1.13437e-38,-0.0746577,-0.310129,10.0042,-0.68162,-0.74563,1.55737,4.01099,-0.24707
262,-1.13554e-38,-0.0663692,-0.303684,10.0299,-0.746424,-0.682414,1.66064,4.01196,-0.23999
263,-1.13671e-38,-0.0365991,-0.315778,9.99756,-0.709604,-0.683503,4.63867,4.01099,-0.241211
264,-1.13788e-38,-0.0474864,-0.308411,10.0054,-0.713126,-0.710744,0.980713,4.0105,-0.240479
265,-1.13905e-38,-0.0552001,-0.290433,10.0062,-0.771091,-0.835229,0.769287,4.01172,-0.241943
266,-1.14021e-38,-0.0633784,-0.282079,10.0324,-0.76999,-0.810511,3.69409,4.01147,-0.244873
267,-1.14138e-38,-0.0623193,-0.291546,10.001,-0.809256,-0.810229,-3.28296,4.01147,-0.242432
268,-1.14255e-38,-0.040089,-0.304479,10.0238,-0.768619,-0.706351,-7.21655,4.0105,-0.246582
269,-1.14372e-38,-0.048575,-0.312642,9.98167,-0.785179,-0.719171,-2.84766,4.00928,-0.240479
270,-1.14488e-38,-0.0577631,-0.294864,10.0063,-0.660412,-0.767761,-2.10132,4.01025,-0.243652
271,-1.14605e-38,-0.0574178,-0.28276,9.98842,-0.829402,-0.739291,-0.00341797,4.0105,-0.243408
272,-1.14722e-38,-0.066321,-0.286065,9.98676,-0.619685,-0.719453,7.28857,4.01074,-0.24292
273,-1.14839e-38,-0.046851,-0.281184,9.96991,-0.786588,-0.736691,-0.514648,4.0105,-0.247559
274,-1.14955e-38,-0.0596099,-0.289732,10.0268,-0.652395,-0.835844,-2.35083,4.0105,-0.241943
275,-1.15072e-38,-0.0464355,-0.299528,10.0317,-0.731517,-0.780696,-0.278809,4.0105,-0.244629
276,-1.15189e-38,-0.0647538,-0.299407,9.98829,-0.801751,-0.763176,-6.60181,4.01172,-0.241455
277,-1.15306e-38,-0.069461,-0.281003,9.98353,-0.715482,-0.809077,0.83667,4.01025,-0.245361
278,-1.15423e-38,-0.0694297,-0.286593,10.0109,-0.704648,-0.941041,1.00464,4.01196,-0.245117
279,-1.15539e-38,-0.060044,-0.302265,9.98451,-0.735449,-0.764214,6.94751,4.01074,-0.241455
280,-1.15656e-38,-0.0394308,-0.311027,10.0368,-0.76178,-0.771309,-2.91528,4.01099,-0.245117
281,-1.15773e-38,-0.0382538,-0.300021,10.0115,-0.734565,-0.798268,4.78418,4.01025,-0.241455
282,-1.1589e-38,-0.046485,-0.299905,9.99897,-0.673142,-0.646093,-1.54004,4.01221,-0.243164
283,-1.16006e-38,-0.0434423,-0.280736,10.005,-0.630891,-0.75425,2.33276,4.00977,-0.241455
284,-1.16123e-38,-0.0596657,-0.255867,9.9972,-0.773153,-0.849099,2.96069,4.01074,-0.244385
285,-1.1624e-38,-0.0512773,-0.301504,9.98999,-0.724998,-0.784705,5.11328,4.00928,-0.25
286,-1.16357e-38,-0.0415927,-0.305212,9.97131,-0.836459,-0.774805,-4.86865,4.0105,-0.243408
287,-1.16473e-38,-0.0587145,-0.289969,9.98334,-0.853069,-0.667443,-0.344482,4.01074,-0.244629
288,-1.1659e-38,-0.0681475,-0.300654,10.0365,-0.741109,-0.827711,-3.96606,4.01196,-0.243408
289,-1.16707e-38,-0.0633115,-0.271306,10.0007,-0.755607,-0.766186,5.05908,4.0105,-0.241943
290,-1.16824e-38,-0.0473772,-0.289078,10.0088,-0.690867,-0.699448,2.5542,4.01074,-0.245605
291,-1.16941e-38,-0.0368172,-0.293748,10.0212,-0.799395,-0.826904,-5.36841,4.01123,-0.23999
292,-1.17057e-38,-0.05485,-0.293874,9.99797,-0.827161,-0.785307,3.44556,4.01074,-0.242676
293,-1.17174e-38,-0.065325,-0.299214,10.0091,-0.714919,-0.825931,2.87158,4.00879,-0.243408
294,-1.17291e-38,-0.0689205,-0.29234,10.0095,-0.776547,-0.695657,-2.49463,4.01001,-0.245117
295,-1.17408e-38,-0.0342988,-0.300699,9.98623,-0.81037,-0.713549,-1.49976,4.01172,-0.243896
296,-1.17524e-38,-0.0429939,-0.308324,9.9936,-0.782323,-0.80266,-0.763916,4.0105,-0.242432
297,-1.17641e-38,-0.0356345,-0.302833,9.99544,-0.736448,-0.754813,6.86841,4.01099,-0.244141
298,-1.17758e-38,-0.0280376,-0.280881,10.0107,-0.765187,-0.827199,-6.34912,4.00952,-0.239502
299,-1.17875e-38,-0.0510428,-0.288952,10.0221,-0.72364,-0.767492,1.41211,4.01147,-0.245117
300,-1.17992e-38,-0.0427131,-0.297256,9.9923,-0.674897,-0.79098,7.7583,4.01221,-0.243408
301,-1.18108e-38,-0.0458432,-0.303468,9.99589,-0.76794,-0.790993,6.05518,4.01123,-0.24585
302,-1.18225e-38,-0.0593765,-0.281778,10.0411,-0.714253,-0.69079,5.30933,4.00977,-0.245117
303,-1.18342e-38,-0.0828232,-0.306345,10.0043,-0.689446,-0.81662,-4.82983,4.01074,-0.24292
304,-1.18459e-38,-0.0873073,-0.291916,9.99586,-0.693467,-0.703764,-7.08643,4.01147,-0.246582
305,-1.18575e-38,-0.0684278,-0.276007,9.98487,-0.737319,-0.815135,-6.45581,4.0105,-0.240479
306,-1.18692e-38,-0.0520026,-0.292444,10.0022,-0.803045,-0.737447,2.88354,4.00928,-0.245117
307,-1.18809e-38,-0.0570839,-0.302638,10.0112,-0.742467,-0.671234,3.69409,4.01147,-0.242188
308,-1.18926e-38,-0.0446834,-0.29949,10.0091,-0.794554,-0.76981,2.78711,4.01294,-0.241943
309,-1.19042e-38,-0.0416101,-0.301089,10.0145,-0.788534,-0.799395,7.43213,4.01099,-0.246582
310,-1.19159e-38,-0.0360296,-0.282949,9.98382,-0.633466,-0.764687,1.16333,4.01123,-0.23999
311,-1.19276e-38,-0.0314031,-0.2905,9.99447,-0.724563,-0.793029,0.519287,4.01221,-0.243896
312,-1.19393e-38,-0.0630747,-0.29608,9.9843,-0.638781,-0.695747,5.05786,4.01147,-0.24292
313,-1.1951e-38,-0.073456,-0.303722,9.9954,-0.802494,-0.591048,-1.2251,4.01196,-0.244385
314,-1.19626e-38,-0.0592321,-0.300806,9.99326,-0.668019,-0.750318,2.91943,4.01196,-0.244141
315,-1.19743e-38,-0.0504442,-0.284411,10.0046,-0.727803,-0.799984,-2.54614,4.00952,-0.238525
316,-1.1986e-38,-0.0539271,-0.307123,9.99845,-0.736153,-0.688921,4.42749,4.01221,-0.245117
317,-1.19977e-38,-0.0456355,-0.300573,10.0223,-0.642303,-0.730467,-7.1521,4.01172,-0.243896
318,-1.20093e-38,-0.0580889,-0.301266,10.0172,-0.720003,-0.763368,6.44971,4.01025,-0.243164
319,-1.2021e-38,-0.0629705,-0.296751,10.0396,-0.652228,-0.677202,0.182861,4.00879,-0.241211
320,-1.20327e-38,-0.0488814,-0.300134,10.006,-0.782374,-0.708374,-1.4978,4.01001,-0.241455
321,-1.20444e-38,-0.0488639,-0.293653,10.0045,-0.715995,-0.83464,-6.62598,4.0105,-0.244629
322,-1.2056e-38,-0.0651961,-0.289099,10.0144,-0.746885,-0.72058,4.46924,4.01025,-0.240967
323,-1.20677e-38,-0.0542357,-0.277758,9.9925,-0.68682,-0.785358,-3.67505,4.01025,-0.246094
324,-1.20794e-38,-0.0536761,-0.303472,10.0154,-0.703034,-0.728341,5.26953,4.01025,-0.24292
325,-1.20911e-38,-0.052565,-0.294234,9.9846,-0.681249,-0.730326,6.66064,4.00928,-0.242432
326,-1.21028e-38,-0.0595336,-0.295408,10.0123,-0.747782,-0.710872,-1.15894,4.01172,-0.246582
327,-1.21144e-38,-0.0534545,-0.294644,10.003,-0.647156,-0.858756,2.88208,4.0105,-0.244385
328,-1.21261e-38,-0.0731146,-0.317389,10.0175,-0.686116,-0.719594,3.64307,4.01025,-0.243652
329,-1.21378e-38,-0.054907,-0.30485,9.98811,-0.702214,-0.787407,-7.38574,4.01001,-0.241943
330,-1.21495e-38,-0.0604014,-0.295073,10.0126,-0.780146,-0.7918,0.677979,4.01123,-0.242676
331,-1.21611e-38,-0.0689108,-0.29007,10.0424,-0.724947,-0.710577,4.61377,4.01025,-0.239746
332,-1.21728e-38,-0.0509963,-0.289824,10.0474,-0.721387,-0.711141,7.10498,4.0105,-0.240967
333,-1.21845e-38,-0.0560638,-0.310927,10.0083,-0.775356,-0.711192,7.28809,4.01074,-0.242188
334,-1.21962e-38,-0.0419518,-0.282314,10.0089,-0.6323,-0.754762,3.03955,4.0105,-0.240967
335,-1.22078e-38,-0.0499024,-0.299199,10.0233,-0.713485,-0.767684,0.114746,4.01074,-0.245605
336,-1.22195e-38,-0.0605585,-0.312828,10.0048,-0.718005,-0.711525,-0.370605,4.0105,-0.242432
337,-1.22312e-38,-0.0384566,-0.3033,9.99164,-0.738113,-0.676229,-2.6792,4.01099,-0.241943
338,-1.22429e-38,-0.0682515,-0.304581,10.011,-0.707773,-0.762049,-4.84326,4.01099,-0.244873
339,-1.22546e-38,-0.0495088,-0.311894,10.0046,-0.857373,-0.730147,-3.01953,4.0105,-0.241943
340,-1.22662e-38,-0.0546208,-0.294213,10.0202,-0.744234,-0.797896,4.50708,4.01147,-0.241699
341,-1.22779e-38,-0.0471503,-0.293259,9.99803,-0.727636,-0.781657,5.48071,4.00928,-0.241943
342,-1.22896e-38,-0.0474878,-0.290432,9.99821,-0.782669,-0.720452,2.60669,4.01074,-0.245605
343,-1.23013e-38,-0.0363757,-0.285789,9.99624,-0.745515,-0.59913,-4.17529,4.01147,-0.242432
344,-1.23129e-38,-0.038431,-0.298079,10.0105,-0.746207,-0.589524,-3.15234,4.01172,-0.24292
345,-1.23246e-38,-0.0665048,-0.295336,10.0226,-0.835101,-0.681672,-5.62891,4.01001,-0.245117
346,-1.23363e-38,-0.0616455,-0.271601,10.0253,-0.832488,-0.818733,2.65942,4.0105,-0.244385
347,-1.2348e-38,-0.0423538,-0.309829,10.0177,-0.796756,-0.711538,-2.66602,4.01074,-0.24707
348,-1.23596e-38,-0.0460206,-0.302813,10.0053,-0.764137,-0.719056,-2.5481,4.01099,-0.23999
349,-1.23713e-38,-0.0470548,-0.294729,10.024,-0.770899,-0.794233,6.34546,4.00977,-0.243408
350,-1.2383e-38,-0.0421735,-0.28612,9.99491,-0.835818,-0.785025,1.88599,4.01001,-0.241455
351,-1.23947e-38,-0.0446434,-0.282457,10.0282,-0.814097,-0.802904,-2.20557,4.00977,-0.23999
352,-1.24064e-38,-0.0683108,-0.272358,10.0185,-0.717634,-0.843144,1.87256,4.0105,-0.245117
353,-1.2418e-38,-0.0492841,-0.294898,10.0317,-0.738766,-0.799446,3.21118,4.00952,-0.23999
354,-1.24297e-38,-0.0458864,-0.307536,10.0292,-0.699025,-0.808091,-5.30273,4.01147,-0.244141
355,-1.24414e-38,-0.0683421,-0.29485,9.99579,-0.803736,-0.813111,0.914551,4.01099,-0.240234
356,-1.24531e-38,-0.0668269,-0.298559,10.0158,-0.733195,-0.798895,-1.84009,4.01123,-0.243408
357,-1.24647e-38,-0.0749576,-0.291619,10.0348,-0.769439,-0.797819,4.84814,4.01123,-0.244141
358,-1.24764e-38,-0.0464561,-0.312113,10.0036,-0.711858,-0.839443,5.47827,4.01099,-0.240967
359,-1.24881e-38,-0.0674716,-0.296864,10.0069,-0.716942,-0.637231,-7.23047,4.01123,-0.24707
360,-1.24998e-38,-0.0294383,-0.291473,9.98927,-0.706184,-0.679725,3.57715,4.0105,-0.241943
361,-1.25114e-38,-0.0487631,-0.297589,9.99897,-0.712229,-0.865736,5.01929,4.01099,-0.247314
362,-1.25231e-38,-0.0436846,-0.293033,10.0394,-0.772538,-0.787292,7.91943,4.00952,-0.243652
363,-1.25348e-38,-0.0802094,-0.306966,9.98329,-0.648745,-0.694697,-5.27271,4.00854,-0.243408
364,-1.25465e-38,-0.0544849,-0.289287,9.98316,-0.753468,-0.67473,3.15747,4.0105,-0.246094
365,-1.25582e-38,-0.0515247,-0.314458,10.026,-0.685424,-0.6719,6.92285,4.00952,-0.239502
366,-1.25698e-38,-0.0498183,-0.305878,10.0136,-0.791211,-0.716264,-5.2749,4.01025,-0.245117
367,-1.25815e-38,-0.0391301,-0.307018,10.026,-0.736166,-0.675332,3.74683,4.01123,-0.243164
368,-1.25932e-38,-0.0370787,-0.285791,10.0122,-0.722168,-0.755313,6.90723,4.01123,-0.242432
369,-1.26049e-38,-0.0390083,-0.291623,10.0121,-0.600667,-0.741673,-4.51416,4.01025,-0.24707
370,-1.26165e-38,-0.0569466,-0.306229,10.0067,-0.727239,-0.7016,-2.71606,4.00928,-0.239014
371,-1.26282e-38,-0.0654328,-0.300922,10.0238,-0.669556,-0.812817,2.29346,4.00952,-0.245605
372,-1.26399e-38,-0.0509396,-0.304994,10.003,-0.791659,-0.745887,-3.04395,4.00903,-0.244873
373,-1.26516e-38,-0.0659929,-0.286699,9.98787,-0.690496,-0.737165,-0.713135,4.01172,-0.24292
374,-1.26632e-38,-0.056171,-0.284438,10.0097,-0.911931,-0.755684,-2.36621,4.01196,-0.242676
375,-1.26749e-38,-0.0472703,-0.276822,9.9987,-0.692711,-0.759513,1.47949,4.01025,-0.241455
376,-1.26866e-38,-0.0587715,-0.284699,10.0337,-0.735641,-0.66889,4.31079,4.01123,-0.244629
377,-1.26983e-38,-0.0651639,-0.271518,10.0291,-0.759424,-0.863392,-1.76025,4.01025,-0.241455
378,-1.271e-38,-0.0495867,-0.299036,9.98515,-0.757554,-0.735884,-2.4165,4.01074,-0.244629
379,-1.27216e-38,-0.0477189,-0.30999,9.99749,-0.713561,-0.72122,3.74707,4.01099,-0.244385
380,-1.27333e-38,-0.0823564,-0.30631,10.0155,-0.730364,-0.683926,-4.37109,4.01099,-0.24292
381,-1.2745e-38,-0.0746646,-0.301274,10.0229,-0.757362,-0.704161,3.40674,4.0105,-0.245117
382,-1.27567e-38,-0.0642044,-0.282585,10.038,-0.928068,-0.701356,-4.62134,4.01172,-0.241455
383,-1.27683e-38,-0.0678075,-0.29061,10.0415,-0.746335,-0.750945,-3.62427,4.01147,-0.247559
384,-1.278e-38,-0.069571,-0.279654,9.98896,-0.721809,-0.759846,1.61157,4.00952,-0.241943
385,-1.27917e-38,-0.0383097,-0.286794,10.015,-0.902082,-0.729826,5.33398,4.01074,-0.243408
386,-1.28034e-38,-0.0339268,-0.286157,10.0113,-0.678086,-0.673808,5.12524,4.01025,-0.244141
387,-1.28151e-38,-0.074105,-0.287823,10.0403,-0.758181,-0.726522,0.717041,4.01123,-0.242432
388,-1.28267e-38,-0.0661421,-0.298646,10.0322,-0.765661,-0.651933,0.822021,4.01123,-0.243652
389,-1.28384e-38,-0.0540989,-0.295356,10.0191,-0.644121,-0.635156,-4.73682,4.01001,-0.241455
390,-1.28501e-38,-0.0735081,-0.290659,10.0036,-0.667097,-0.708157,-0.724854,4.0105,-0.242188
391,-1.28618e-38,-0.0529274,-0.298661,10.0044,-0.661936,-0.701766,2.74927,4.01172,-0.244141
392,-1.28734e-38,-0.0627555,-0.306929,9.99528,-0.771283,-0.78094,6.79004,4.01074,-0.243652
393,-1.28851e-38,-0.0505217,-0.310516,9.97449,-0.772615,-0.715239,0.757324,4.01099,-0.245605
394,-1.28968e-38,-0.0507524,-0.296464,10.0101,-0.784654,-0.795693,6.02832,4.01147,-0.240967
395,-1.29085e-38,-0.0503923,-0.292246,10.0177,-0.821,-0.776457,7.31372,4.01147,-0.247559
396,-1.29201e-38,-0.0637968,-0.284795,10.0057,-0.812548,-0.747026,2.75195,4.01001,-0.244385
397,-1.29318e-38,-0.0556256,-0.297669,10.0324,-0.741007,-0.791544,1.96216,4.01196,-0.241455
398,-1.29435e-38,-0.0566764,-0.324515,10.0423,-0.756171,-0.752354,-0.185059,4.00928,-0.244141
399,-1.29552e-38,-0.0737597,-0.303021,10.0092,-0.66022,-0.786191,7.9165,4.01172,-0.241455
400,-1.29669e-38,-0.0749512,-0.287984,9.9953,-0.714663,-0.743889,2.5542,4.0105,-0.245605
401,-1.29785e-38,-0.0566895,-0.281743,10.0224,-0.757515,-0.768709,-2.92773,4.0105,-0.243408
402,-1.29902e-38,-0.0561009,-0.300188,9.9941,-0.769144,-0.696118,1.57129,4.01001,-0.245117
403,-1.30019e-38,-0.0579643,-0.294832,10.0239,-0.709463,-0.771552,6.18433,4.01221,-0.239746
404,-1.30136e-38,-0.0579522,-0.294721,9.99825,-0.766429,-0.761947,3.49805,4.01099,-0.241943
405,-1.30252e-38,-0.0732329,-0.29752,10.0208,-0.762446,-0.766621,-3.43774,4.00928,-0.245605
406,-1.30369e-38,-0.0482056,-0.301119,9.98848,-0.667801,-0.763343,4.71729,4.01099,-0.239502
407,-1.30486e-38,-0.0643447,-0.28956,9.9769,-0.716622,-0.725715,-0.0554199,4.01025,-0.242676
408,-1.30603e-38,-0.0537618,-0.283534,10.0319,-0.726868,-0.694005,-6.56372,4.01294,-0.240479
409,-1.30719e-38,-0.0739513,-0.308522,10.0279,-0.674359,-0.687755,-0.00439453,4.01123,-0.244873
410,-1.30836e-38,-0.074872,-0.289494,9.99953,-0.775048,-0.759142,-3.49146,4.0105,-0.243164
411,-1.30953e-38,-0.0525324,-0.298077,10.0056,-0.758373,-0.700024,2.54224,4.00977,-0.24292
412,-1.3107e-38,-0.0447652,-0.277715,9.99901,-0.768094,-0.697553,-3.0332,4.01074,-0.245605
413,-1.31187e-38,-0.0604869,-0.304368,10.0094,-0.770297,-0.757643,0.744385,4.0105,-0.240479
414,-1.31303e-38,-0.0573108,-0.303998,10.0112,-0.630827,-0.728418,-2.61206,4.00952,-0.246338
415,-1.3142e-38,-0.0520288,-0.295717,9.99495,-0.780069,-0.60643,-4.69897,4.01099,-0.242676
416,-1.31537e-38,-0.0584003,-0.299794,10.0006,-0.72341,-0.850687,-7.32275,4.01172,-0.243896
417,-1.31654e-38,-0.0578332,-0.297736,10.0246,-0.639037,-0.85517,-6.90112,4.01001,-0.246582
418,-1.3177e-38,-0.0559414,-0.289033,10.003,-0.849048,-0.650486,-3.04663,4.01123,-0.240479
419,-1.31887e-38,-0.0419803,-0.301255,10.0386,-0.765123,-0.867964,-6.64038,4.01123,-0.245117
420,-1.32004e-38,-0.0762035,-0.304463,10.016,-0.732068,-0.779633,-0.292236,4.01074,-0.243408
421,-1.32121e-38,-0.0481559,-0.298859,10.0134,-0.789648,-0.769131,6.29492,4.00806,-0.246338
422,-1.32237e-38,-0.0658865,-0.295848,10.0345,-0.784603,-0.7428,6.92212,4.01001,-0.243164
423,-1.32354e-38,-0.058056,-0.308864,10.0245,-0.836727,-0.842798,-5.98193,4.00928,-0.240967
424,-1.32471e-38,-0.0551802,-0.303758,10.0026,-0.646631,-0.796398,-1.62939,4.0105,-0.242676
425,-1.32588e-38,-0.0774113,-0.311828,10.0363,-0.792043,-0.798652,6.04126,4.01147,-0.23999
426,-1.32705e-38,-0.0675226,-0.303422,9.996,-0.772807,-0.785563,-6.68018,4.01147,-0.244629
427,-1.32821e-38,-0.0529885,-0.303425,10.0101,-0.744503,-0.695042,2.35815,4.01001,-0.241699
428,-1.32938e-38,-0.0529754,-0.280605,10.0223,-0.604176,-0.839724,3.24927,4.01074,-0.240479
429,-1.33055e-38,-0.0484359,-0.277569,10.004,-0.631724,-0.7819,7.85181,4.01099,-0.245117
430,-1.33172e-38,-0.0580253,-0.292316,10.0166,-0.658516,-0.795117,4.88721,4.01147,-0.239014
431,-1.33288e-38,-0.0440945,-0.289419,10.0089,-0.866299,-0.759308,-6.12769,4.01025,-0.245605
432,-1.33405e-38,-0.0509544,-0.297645,9.98864,-0.664151,-0.705775,3.91675,4.01147,-0.241943
433,-1.33522e-38,-0.0588186,-0.277055,9.99195,-0.733169,-0.742723,4.76929,4.01147,-0.245361
434,-1.33639e-38,-0.0697024,-0.301462,10.0261,-0.790199,-0.81548,-0.749268,4.00928,-0.244629
435,-1.33755e-38,-0.0686297,-0.318235,10.0436,-0.759103,-0.648962,6.82959,4.01074,-0.241943
436,-1.33872e-38,-0.0508782,-0.292006,9.99103,-0.662064,-0.78409,-0.473877,4.00952,-0.246094
437,-1.33989e-38,-0.0773168,-0.298747,10.0194,-0.736858,-0.720439,2.12256,4.01001,-0.238037
438,-1.34106e-38,-0.0459857,-0.286704,10.0243,-0.734194,-0.689446,-6.29858,4.01099,-0.243164
439,-1.34223e-38,-0.0575438,-0.281392,10.0141,-0.66953,-0.663614,-3.1106,4.00977,-0.243652
440,-1.34339e-38,-0.0429567,-0.288338,10.0113,-0.615805,-0.727662,-0.86792,4.00977,-0.243408
441,-1.34456e-38,-0.066147,-0.286517,10.0033,-0.722129,-0.738087,-3.54346,4.00977,-0.243164
442,-1.34573e-38,-0.0553422,-0.292588,9.99527,-0.634055,-0.709514,1.87158,4.01099,-0.244385
443,-1.3469e-38,-0.034703,-0.295052,9.95026,-0.742147,-0.750369,0.16748,4.0105,-0.246582
444,-1.34806e-38,-0.0885284,-0.296257,10.0058,-0.684476,-0.786703,-0.396484,4.01025,-0.240967
445,-1.34923e-38,-0.066176,-0.300359,10.0323,-0.677855,-0.682722,6.15015,4.00879,-0.243896
446,-1.3504e-38,-0.0573806,-0.285903,9.98864,-0.752316,-0.844834,4.0249,4.00928,-0.244141
447,-1.35157e-38,-0.039359,-0.290662,9.99689,-0.818836,-0.844911,-7.51978,4.01196,-0.241455
448,-1.35273e-38,-0.0417724,-0.28694,9.99174,-0.723474,-0.79627,4.71851,4.01025,-0.245117
449,-1.3539e-38,-0.0295709,-0.297301,9.98889,-0.680839,-0.6521,-0.212891,4.01025,-0.244385
450,-1.35507e-38,-0.0367712,-0.286429,10.0009,-0.726509,-0.781887,-5.46191,4.0127,-0.243408
451,-1.35624e-38,-0.0609646,-0.300918,10.0343,-0.612001,-0.651268,4.15332,4.01123,-0.243896
452,-1.35741e-38,-0.0469115,-0.284707,10.0144,-0.699947,-0.737856,-0.132812,4.00928,-0.23999
453,-1.35857e-38,-0.0527102,-0.289793,10.0071,-0.815519,-0.668339,-7.95093,4.0105,-0.245605
454,-1.35974e-38,-0.0619979,-0.294399,10.0018,-0.693595,-0.783501,7.97192,4.00977,-0.239014
455,-1.36091e-38,-0.0608142,-0.302205,10.0198,-0.842593,-0.789725,3.2229,4.01074,-0.244629
456,-1.36208e-38,-0.0522218,-0.312214,10.019,-0.835293,-0.688114,0.729736,4.01172,-0.239502
457,-1.36324e-38,-0.0559324,-0.281421,10.0392,-0.712255,-0.779339,7.00049,4.01025,-0.242432
458,-1.36441e-38,-0.0566001,-0.294049,10.0075,-0.771552,-0.675806,2.92017,4.01172,-0.247314
459,-1.36558e-38,-0.0528295,-0.299179,10.0034,-0.750574,-0.822268,2.89404,4.01147,-0.23999
460,-1.36675e-38,-0.0551463,-0.288479,10.0042,-0.741404,-0.824266,-1.59082,4.01099,-0.241699
461,-1.36792e-38,-0.0576328,-0.284624,9.99904,-0.685296,-0.732247,-0.581055,4.01099,-0.243896
462,-1.36908e-38,-0.0452481,-0.299972,9.97571,-0.715239,-0.788701,-4.59399,4.01099,-0.244629
463,-1.37025e-38,-0.0455554,-0.282572,10.0245,-0.818733,-0.833026,2.00342,4.01074,-0.239746
464,-1.37142e-38,-0.0558799,-0.276671,10.0051,-0.711666,-0.711538,3.21045,4.01001,-0.24292
465,-1.37259e-38,-0.0440436,-0.284137,10.0208,-0.647925,-0.762728,3.61816,4.00952,-0.245605
466,-1.37375e-38,-0.059331,-0.311805,10.0182,-0.778429,-0.698436,2.83081,4.00977,-0.244873
467,-1.37492e-38,-0.0562503,-0.306715,10.0295,-0.836689,-0.76082,-3.00659,4.01074,-0.243164
468,-1.37609e-38,-0.0724652,-0.284748,10.0444,-0.73874,-0.84965,-6.05029,4.01123,-0.241455
469,-1.37726e-38,-0.0481803,-0.297311,10.0041,-0.648604,-0.794784,-0.330322,4.00977,-0.242676
470,-1.37842e-38,-0.0645526,-0.295583,10.0178,-0.609785,-0.776227,2.62012,4.0105,-0.245117
471,-1.37959e-38,-0.0818704,-0.288314,9.99708,-0.650922,-0.712217,-1.39258,4.00977,-0.240967
472,-1.38076e-38,-0.0554975,-0.303394,9.99145,-0.731888,-0.794438,0.52002,4.01147,-0.244141
473,-1.38193e-38,-0.0551106,-0.284961,10.0219,-0.72592,-0.721745,0.599609,4.01099,-0.239014
474,-1.3831e-38,-0.0390432,-0.287661,9.98989,-0.787599,-0.84185,-5.90576,4.01123,-0.243164
475,-1.38426e-38,-0.0614977,-0.291256,9.98527,-0.698551,-0.736614,-3.97559,4.00928,-0.244141
476,-1.38543e-38,-0.0607231,-0.298714,10.0033,-0.798473,-0.736025,1.34839,4.00977,-0.240967
477,-1.3866e-38,-0.0545264,-0.293328,10.0419,-0.727457,-0.601819,-0.264893,4.01001,-0.245605
478,-1.38777e-38,-0.0511395,-0.282409,10.0149,-0.766173,-0.66784,1.48022,4.00952,-0.240967
479,-1.38893e-38,-0.0643033,-0.300132,9.98157,-0.887559,-0.715867,-7.20435,4.01147,-0.245117
480,-1.3901e-38,-0.057722,-0.288614,10.0113,-0.826661,-0.725843,-5.8252,4.01001,-0.242432
481,-1.39127e-38,-0.0661357,-0.296847,9.99668,-0.767825,-0.70963,-2.34082,4.0127,-0.243896
482,-1.39244e-38,-0.0615062,-0.270677,10.0348,-0.803339,-0.72683,-5.36816,4.01123,-0.245117
483,-1.3936e-38,-0.0514137,-0.29029,9.99469,-0.777366,-0.791019,-7.677,4.01172,-0.243408
484,-1.39477e-38,-0.0627806,-0.291118,10.0375,-0.815609,-0.761204,-2.5083,4.01074,-0.24707
485,-1.39594e-38,-0.0452569,-0.301049,10.005,-0.735052,-0.6839,-7.57129,4.01123,-0.244385
486,-1.39711e-38,-0.0388563,-0.301016,9.9992,-0.675832,-0.75019,-5.13037,4.01001,-0.244629
487,-1.39828e-38,-0.0465797,-0.295807,10.022,-0.733566,-0.724012,-7.80664,4.0105,-0.242188
488,-1.39944e-38,-0.0581643,-0.299158,10.0004,-0.66661,-0.78336,-2.58813,4.01147,-0.240967
489,-1.40061e-38,-0.0563776,-0.282534,10.0252,-0.594609,-0.737639,1.40259,4.00879,-0.244629
490,-1.40178e-38,-0.0660723,-0.295625,10.0121,-0.673949,-0.708887,-4.56738,4.01074,-0.240479
491,-1.40295e-38,-0.0578115,-0.270312,10.0115,-0.772871,-0.747539,-3.64966,4.01099,-0.245605
492,-1.40411e-38,-0.0518658,-0.302069,10.0131,-0.799126,-0.754045,-4.80322,4.0105,-0.241943
493,-1.40528e-38,-0.0513014,-0.291141,9.98994,-0.846153,-0.8429,7.55127,4.01025,-0.24292
494,-1.40645e-38,-0.0651677,-0.286237,10.0093,-0.74791,-0.706748,-3.9248,4.01074,-0.245117
495,-1.40762e-38,-0.061734,-0.291151,9.99429,-0.850469,-0.76835,6.59277,4.01123,-0.243408
496,-1.40878e-38,-0.0448371,-0.302297,9.98736,-0.727367,-0.697117,6.82935,4.01074,-0.247559
497,-1.40995e-38,-0.0754382,-0.297901,9.99839,-0.767133,-0.756606,1.33374,4.01123,-0.23999
498,-1.41112e-38,-0.0687179,-0.293801,9.98371,-0.781503,-0.775663,-5.38159,4.01147,-0.243652
499,-1.41229e-38,-0.0511096,-0.305364,10.0208,-0.68878,-0.705839,2.33105,4.01074,-0.244629
500,-1.41346e-38,-0.0511497,-0.289158,9.97959,-0.675511,-0.716571,0.862793,4.0105,-0.244873
501,-1.41462e-38,-0.0609979,-0.294686,9.99638,-0.749178,-0.727355,-5.48755,4.01221,-0.243652
502,-1.41579e-38,-0.0499144,-0.299382,9.99562,-0.724486,-0.719158,2.04468,4.00903,-0.240479
503,-1.41696e-38,-0.0386398,-0.287272,10.0234,-0.708707,-0.81347,-3.17773,4.01099,-0.246094
504,-1.41813e-38,-0.0406923,-0.293632,9.99751,-0.759795,-0.641252,6.43579,4.01074,-0.241943
505,-1.41929e-38,-0.0601571,-0.303843,9.99428,-0.806605,-0.774587,-0.0302734,4.01123,-0.24292
506,-1.42046e-38,-0.0531635,-0.304681,10.0068,-0.785704,-0.633504,-4.30493,4.0105,-0.243408
507,-1.42163e-38,-0.0451025,-0.288522,10.0001,-0.790827,-0.764649,-0.0566406,4.01123,-0.242432
508,-1.4228e-38,-0.0481286,-0.288264,9.9967,-0.618084,-0.869616,-3.78027,4.0105,-0.244141
509,-1.42396e-38,-0.0553174,-0.27437,9.99614,-0.67929,-0.741635,1.63623,4.01074,-0.240967
510,-1.42513e-38,-0.0397955,-0.27816,10.0283,-0.857001,-0.757054,3.47437,4.00903,-0.243652
511,-1.4263e-38,-0.0574243,-0.305194,10.0239,-0.671836,-0.726983,-3.9502,4.01025,-0.242676
512,-1.42747e-38,-0.0524235,-0.28882,10.0339,-0.689113,-0.568367,1.91187,4.01025,-0.24585
513,-1.42864e-38,-0.0327462,-0.288355,10.0019,-0.753187,-0.675191,-0.159424,4.00977,-0.244141
514,-1.4298e-38,-0.0540392,-0.298102,10.0042,-0.807297,-0.772231,-7.16309,4.01001,-0.240967
515,-1.43097e-38,-0.0483956,-0.299071,10.0187,-0.784961,-0.713369,-0.0297852,4.01074,-0.246582
516,-1.43214e-38,-0.0701352,-0.284936,9.995,-0.799728,-0.761383,5.67651,4.01001,-0.238525
517,-1.43331e-38,-0.0513725,-0.291272,10.0195,-0.775765,-0.816518,-1.42017,4.01074,-0.243408
518,-1.43447e-38,-0.0520845,-0.283063,9.99808,-0.581853,-0.714791,0.192871,4.01123,-0.242676
519,-1.43564e-38,-0.0445125,-0.284766,9.98666,-0.754365,-0.795117,-3.89819,4.0105,-0.240967
520,-1.43681e-38,-0.0388776,-0.297303,10.0077,-0.829145,-0.747385,-1.3396,4.00928,-0.245117
521,-1.43798e-38,-0.0558061,-0.285278,10.0076,-0.633299,-0.749152,2.43652,4.01025,-0.239502
522,-1.43914e-38,-0.0528657,-0.289387,9.9889,-0.707837,-0.87999,0.810547,4.01025,-0.246094
523,-1.44031e-38,-0.0690283,-0.29735,9.96915,-0.817683,-0.772551,-5.31494,4.01074,-0.243896
524,-1.44148e-38,-0.0549681,-0.275368,10.0176,-0.796859,-0.652881,7.63037,4.01001,-0.241943
525,-1.44265e-38,-0.0442002,-0.303664,9.99703,-0.604035,-0.730185,4.10132,4.01074,-0.245117
526,-1.44382e-38,-0.0603614,-0.292322,10.0115,-0.684118,-0.778865,-7.60913,4.01025,-0.240479
527,-1.44498e-38,-0.0533858,-0.300086,10.0089,-0.728328,-0.79262,-7.81665,4.00854,-0.243164
528,-1.44615e-38,-0.0569247,-0.296536,10.0112,-0.756119,-0.701254,-6.53345,4.00977,-0.240723
529,-1.44732e-38,-0.0650088,-0.307819,9.99266,-0.680762,-0.674512,4.87524,4.01074,-0.24585
530,-1.44849e-38,-0.0639915,-0.31784,10.016,-0.772154,-0.863878,-3.91089,4.01025,-0.246582
531,-1.44965e-38,-0.0594897,-0.296213,10.0025,-0.809704,-0.673898,7.94458,4.0105,-0.244385
532,-1.45082e-38,-0.0459819,-0.293197,9.98003,-0.693582,-0.878082,3.49902,4.01001,-0.245117
533,-1.45199e-38,-0.0442771,-0.282768,10.0101,-0.683708,-0.713395,-7.92334,4.00952,-0.244385
534,-1.45316e-38,-0.0501868,-0.299319,10.0131,-0.731094,-0.761806,7.49805,4.01074,-0.241211
535,-1.45432e-38,-0.0459662,-0.322112,10.0134,-0.850918,-0.656224,-3.30908,4.01123,-0.243164
536,-1.45549e-38,-0.0306042,-0.297996,10.0142,-0.764444,-0.809243,5.29639,4.00977,-0.241455
537,-1.45666e-38,-0.0550801,-0.293165,10.0067,-0.703124,-0.706197,6.68579,4.01025,-0.244629
538,-1.45783e-38,-0.0594611,-0.29805,9.99566,-0.678739,-0.704993,5.21729,4.01001,-0.24292
539,-1.459e-38,-0.0478438,-0.303212,10.0297,-0.824804,-0.673706,-1.15698,4.01025,-0.245117
540,-1.46016e-38,-0.0485444,-0.29059,9.98293,-0.802917,-0.774792,-2.07617,4.01099,-0.244385
541,-1.46133e-38,-0.0774856,-0.299905,10.017,-0.839545,-0.698052,-3.91089,4.01001,-0.243896
542,-1.4625e-38,-0.0659192,-0.315104,10.0192,-0.855439,-0.748525,-6.23389,4.01147,-0.243896
543,-1.46367e-38,-0.062557,-0.286592,10.0209,-0.793824,-0.743722,-5.69385,4.00977,-0.242432
544,-1.46483e-38,-0.0591568,-0.282502,9.97887,-0.744183,-0.720285,4.76978,4.01123,-0.246094
545,-1.466e-38,-0.0560114,-0.296278,9.99629,-0.821551,-0.774088,7.37915,4.01172,-0.237549
546,-1.46717e-38,-0.058876,-0.307584,10.027,-0.733976,-0.773704,2.08179,4.01099,-0.245605
547,-1.46834e-38,-0.0599077,-0.3084,9.99589,-0.779992,-0.801713,-7.16504,4.01172,-0.243652
548,-1.46951e-38,-0.0635839,-0.297368,10.0042,-0.72925,-0.766698,0.521729,4.0105,-0.242432
549,-1.47067e-38,-0.0580038,-0.324512,10.0115,-0.769644,-0.762856,-5.38159,4.01147,-0.244629
550,-1.47184e-38,-0.075192,-0.280346,10.0135,-0.726509,-0.760935,-4.90967,4.01147,-0.240967
551,-1.47301e-38,-0.0395687,-0.299767,10.0013,-0.823651,-0.762331,0.455322,4.01099,-0.24707
552,-1.47418e-38,-0.050429,-0.308874,9.99032,-0.710974,-0.795245,-5.52539,4.01123,-0.244385
553,-1.47534e-38,-0.0533419,-0.298791,10.0133,-0.829786,-0.76593,7.34106,4.0105,-0.243896
554,-1.47651e-38,-0.0334087,-0.286592,10.0002,-0.821641,-0.69088,6.08228,4.0105,-0.246582
555,-1.47768e-38,-0.0497323,-0.291349,10.0285,-0.769618,-0.785397,2.64526,4.01123,-0.240479
556,-1.47885e-38,-0.0590412,-0.296099,10.0049,-0.788099,-0.760487,3.05273,4.0105,-0.24707
557,-1.48001e-38,-0.0504942,-0.306038,10.0278,-0.754928,-0.811228,6.72314,4.01172,-0.242432
558,-1.48118e-38,-0.0608985,-0.294732,9.99055,-0.740559,-0.819835,5.70239,4.01025,-0.243164
559,-1.48235e-38,-0.0420131,-0.287318,9.99935,-0.65607,-0.732401,-6.24805,4.01221,-0.241455
560,-1.48352e-38,-0.0428298,-0.270904,9.99693,-0.788714,-0.869296,-0.0683594,4.01025,-0.24292
561,-1.48469e-38,-0.0444409,-0.289691,9.99397,-0.617585,-0.784257,6.80249,4.01123,-0.248535
562,-1.48585e-38,-0.0549906,-0.283829,10.0153,-0.765148,-0.83756,-5.52441,4.0105,-0.243896
563,-1.48702e-38,-0.0628657,-0.28494,10.0562,-0.879465,-0.678034,-3.60962,4.0105,-0.245605
564,-1.48819e-38,-0.0424598,-0.289044,9.99421,-0.772705,-0.668583,0.167236,4.01074,-0.240967
565,-1.48936e-38,-0.050641,-0.292336,10.0001,-0.670235,-0.807886,0.572266,4.01196,-0.240967
566,-1.49052e-38,-0.0386201,-0.28381,10.0203,-0.691802,-0.689855,-1.76221,4.01172,-0.24707
567,-1.49169e-38,-0.0593436,-0.291669,10.0338,-0.756913,-0.72925,-1.23584,4.01025,-0.242432
568,-1.49286e-38,-0.0588024,-0.275288,10.0258,-0.72341,-0.676459,0.259766,4.01025,-0.25
569,-1.49403e-38,-0.0475933,-0.290587,9.99858,-0.759962,-0.757144,-0.556152,4.01196,-0.241943
570,-1.49519e-38,-0.0540294,-0.289751,9.99905,-0.753993,-0.772128,0.0500488,4.01025,-0.246582
571,-1.49636e-38,-0.0532251,-0.319416,10.0026,-0.693723,-0.745413,-3.9917,4.01147,-0.242188
572,-1.49753e-38,-0.0631475,-0.303542,9.98045,-0.768235,-0.767364,-5.77441,4.01099,-0.243408
573,-1.4987e-38,-0.0503499,-0.305687,10.0183,-0.711743,-0.724729,-5.23706,4.01123,-0.241211
574,-1.49987e-38,-0.0611958,-0.304693,10.0356,-0.760935,-0.912571,4.32593,4.00977,-0.24292
575,-1.50103e-38,-0.0575533,-0.300202,10.0266,-0.692302,-0.691431,2.37231,4.00928,-0.245605
576,-1.5022e-38,-0.0304299,-0.272583,10.0124,-0.727572,-0.725446,-1.27563,4.01074,-0.242432
577,-1.50337e-38,-0.0485527,-0.289165,10.0326,-0.678893,-0.680429,-3.15015,4.01025,-0.244385
578,-1.50454e-38,-0.05442,-0.282002,10.017,-0.685091,-0.784526,4.84912,4.01074,-0.245117
579,-1.5057e-38,-0.0420455,-0.277108,9.99833,-0.809243,-0.77013,7.42065,4.00977,-0.242432
580,-1.50687e-38,-0.0471771,-0.285721,9.98893,-0.775279,-0.745797,-3.98779,4.00879,-0.244141
581,-1.50804e-38,-0.0469107,-0.309745,9.99473,-0.659733,-0.790519,-0.0305176,4.01123,-0.237549
582,-1.50921e-38,-0.0489031,-0.269146,10.0088,-0.746309,-0.737523,6.02979,4.0105,-0.245117
583,-1.51037e-38,-0.0483725,-0.294161,10.0016,-0.659246,-0.686731,5.18921,4.01147,-0.245117
584,-1.51154e-38,-0.0583763,-0.28444,10.025,-0.643468,-0.758937,-0.187256,4.01099,-0.23877
585,-1.51271e-38,-0.0488715,-0.289387,10.0205,-0.812266,-0.688088,-1.42114,4.01172,-0.243652
586,-1.51388e-38,-0.0503018,-0.296798,10.0128,-0.804108,-0.752546,6.62061,4.00977,-0.240967
587,-1.51505e-38,-0.0399831,-0.300499,10.0194,-0.74645,-0.829082,6.62036,4.01001,-0.244141
588,-1.51621e-38,-0.0361728,-0.295752,10.0326,-0.796923,-0.795386,1.28174,4.01099,-0.243896
589,-1.51738e-38,-0.042658,-0.295218,10.0073,-0.716238,-0.788854,0.469238,4.0105,-0.243164
590,-1.51855e-38,-0.0675806,-0.273276,10.0435,-0.667648,-0.745592,4.66553,4.01074,-0.246582
591,-1.51972e-38,-0.0749055,-0.293347,10.0168,-0.685194,-0.710398,-4.72363,4.00977,-0.241455
592,-1.52088e-38,-0.0562586,-0.301316,9.99328,-0.848407,-0.722898,-2.34009,4.01221,-0.246094
593,-1.52205e-38,-0.0466766,-0.299623,9.97822,-0.684732,-0.692366,-4.04199,4.00977,-0.241455
594,-1.52322e-38,-0.0613059,-0.307224,9.99331,-0.77314,-0.696528,1.27026,4.00977,-0.243164
595,-1.52439e-38,-0.0581571,-0.294362,9.99971,-0.737062,-0.744132,5.03174,4.01147,-0.241943
596,-1.52555e-38,-0.0434423,-0.288486,9.99017,-0.726894,-0.691546,3.59082,4.01025,-0.240967
597,-1.52672e-38,-0.0537388,-0.310246,10.0004,-0.689843,-0.865838,-0.646484,4.01074,-0.245605
598,-1.52789e-38,-0.055584,-0.317103,9.98169,-0.78126,-0.647016,7.48364,4.01172,-0.239014
599,-1.52906e-38,-0.0617945,-0.318334,10.0188,-0.684797,-0.730006,4.80908,4.01123,-0.245117
600,-1.53023e-38,-0.0396387,-0.291829,10.0067,-0.645837,-0.85257,7.1958,4.01147,-0.242432
601,-1.53139e-38,-0.0731719,-0.294171,9.98278,-0.83464,-0.714279,-4.84229,4.0105,-0.241943
602,-1.53256e-38,-0.0537932,-0.299826,10.0108,-0.74426,-0.791621,-6.11499,4.01074,-0.245117
603,-1.53373e-38,-0.0398573,-0.277331,10.0063,-0.756478,-0.847357,5.92505,4.0105,-0.238037
604,-1.5349e-38,-0.0725635,-0.297389,10.0252,-0.646798,-0.778557,-3.72852,4.01074,-0.244629
605,-1.53606e-38,-0.0462248,-0.31284,10.0061,-0.673104,-0.773281,-6.27075,4.00977,-0.241943
606,-1.53723e-38,-0.0671474,-0.305601,9.98951,-0.772551,-0.793273,-7.70093,4.01001,-0.243652
607,-1.5384e-38,-0.0604304,-0.288799,9.98309,-0.659938,-0.694389,7.94482,4.01001,-0.243652
608,-1.53957e-38,-0.0665415,-0.282476,10.0171,-0.700076,-0.754147,-5.24829,4.01001,-0.244385
609,-1.54073e-38,-0.0790059,-0.302178,9.97421,-0.686372,-0.713395,-3.36011,4.01025,-0.243652
610,-1.5419e-38,-0.0505114,-0.29069,9.99925,-0.775202,-0.673565,-1.36743,4.0105,-0.23999
611,-1.54307e-38,-0.0831143,-0.305847,10.0259,-0.686321,-0.766211,7.60352,4.01025,-0.243652
612,-1.54424e-38,-0.0431341,-0.296662,10.0096,-0.801482,-0.677689,3.9043,4.01099,-0.242676
613,-1.54541e-38,-0.0524712,-0.295619,10.0122,-0.701177,-0.734219,-2.05029,4.01147,-0.244385
614,-1.54657e-38,-0.0596,-0.294119,9.97239,-0.689727,-0.750766,5.58228,4.01172,-0.244141
615,-1.54774e-38,-0.0569186,-0.30072,9.96814,-0.69923,-0.727406,-6.50708,4.00977,-0.241455
616,-1.54891e-38,-0.060004,-0.286488,10.0155,-0.651101,-0.724896,-4.12231,4.01123,-0.245117
617,-1.55008e-38,-0.0694369,-0.292567,10.0139,-0.723538,-0.784884,-7.9248,4.01099,-0.242432
618,-1.55124e-38,-0.0496965,-0.289434,10.0277,-0.806336,-0.825957,3.3938,4.01025,-0.246582
619,-1.55241e-38,-0.0569008,-0.289642,10.0154,-0.750676,-0.808616,6.46265,4.0105,-0.240723
620,-1.55358e-38,-0.0577808,-0.297668,10.0131,-0.739227,-0.71036,-6.31201,4.01099,-0.242432
621,-1.55475e-38,-0.0395871,-0.292155,10.0199,-0.77063,-0.664561,6.4624,4.01074,-0.246094
622,-1.55592e-38,-0.0498441,-0.277164,10.0144,-0.791967,-0.776777,-3.2168,4.01099,-0.240479
623,-1.55708e-38,-0.0410009,-0.298341,10.0327,-0.734693,-0.806797,6.46167,4.01099,-0.242676
624,-1.55825e-38,-0.0608722,-0.295753,10.001,-0.741199,-0.707977,6.47607,4.01001,-0.240479
625,-1.55942e-38,-0.0524979,-0.289006,9.99382,-0.706607,-0.765545,4.76904,4.01172,-0.244385
626,-1.56059e-38,-0.0712587,-0.297719,9.98882,-0.7016,-0.694658,6.81665,4.01074,-0.243164
627,-1.56175e-38,-0.0437128,-0.267743,9.98956,-0.785473,-0.577767,1.12476,4.0105,-0.240967
628,-1.56292e-38,-0.0518226,-0.309024,10.0036,-0.662627,-0.744772,7.02661,4.01025,-0.244141
629,-1.56409e-38,-0.0389185,-0.304998,9.99037,-0.801892,-0.709604,0.048584,4.01123,-0.239014
630,-1.56526e-38,-0.0618096,-0.285978,10.0135,-0.673719,-0.757093,2.96094,4.0105,-0.245605
631,-1.56642e-38,-0.0723501,-0.269595,10.0229,-0.647131,-0.802712,-1.52588,4.01147,-0.243652
632,-1.56759e-38,-0.0431303,-0.275824,9.98949,-0.75512,-0.697924,5.05786,4.01147,-0.240967
633,-1.56876e-38,-0.0586597,-0.291005,10.0464,-0.693224,-0.80024,-5.36621,4.01001,-0.246582
634,-1.56993e-38,-0.0725036,-0.298041,10.021,-0.784948,-0.733438,3.55176,4.00977,-0.241943
635,-1.5711e-38,-0.0816187,-0.297204,10.031,-0.821666,-0.710859,7.99878,4.00903,-0.249023
636,-1.57226e-38,-0.0524078,-0.280265,10.0196,-0.722872,-0.752918,5.32153,4.0105,-0.241943
637,-1.57343e-38,-0.041542,-0.285493,10.015,-0.755825,-0.634772,-5.24902,4.0105,-0.244873
638,-1.5746e-38,-0.0545907,-0.278575,10.0053,-0.702432,-0.7188,-3.07251,4.01099,-0.245605
639,-1.57577e-38,-0.0571698,-0.289723,9.96978,-0.676818,-0.721566,-1.55127,4.01074,-0.242432
640,-1.57693e-38,-0.0590268,-0.287289,10.0144,-0.69526,-0.701638,0.230957,4.01196,-0.242676
641,-1.5781e-38,-0.0544911,-0.292082,9.99914,-0.745259,-0.820898,-4.93506,4.01099,-0.243408
642,-1.57927e-38,-0.062155,-0.286399,9.99276,-0.608863,-0.731658,7.31543,4.01001,-0.243652
643,-1.58044e-38,-0.0624951,-0.292774,9.99422,-0.766954,-0.711525,3.66943,4.01001,-0.245117
644,-1.5816e-38,-0.0687535,-0.303765,10.0307,-0.787061,-0.660937,1.7561,4.00928,-0.239502
645,-1.58277e-38,-0.0624143,-0.303966,10.0249,-0.647169,-0.78669,-2.28442,4.01001,-0.24707
646,-1.58394e-38,-0.0476638,-0.283286,9.9852,-0.700934,-0.745758,-0.670654,4.00952,-0.243896
647,-1.58511e-38,-0.0525414,-0.301752,10.0155,-0.731491,-0.691098,-1.11621,4.00903,-0.241699
648,-1.58628e-38,-0.0673659,-0.304199,10.0126,-0.802648,-0.775522,-7.54199,4.00879,-0.243408
649,-1.58744e-38,-0.0467812,-0.303418,9.9858,-0.819105,-0.758117,-5.45923,4.01074,-0.243652
650,-1.58861e-38,-0.0476368,-0.315814,10.0218,-0.804889,-0.801277,-7.42627,4.01074,-0.241211
651,-1.58978e-38,-0.0753831,-0.321479,10.0379,-0.729378,-0.684553,5.19238,4.00903,-0.238525
652,-1.59095e-38,-0.0553772,-0.291745,10.0115,-0.754544,-0.743146,6.16162,4.01001,-0.24707
653,-1.59211e-38,-0.0419946,-0.28845,10.0056,-0.797935,-0.738202,7.82495,4.01172,-0.240967
654,-1.59328e-38,-0.0384882,-0.303979,10.0171,-0.743697,-0.778148,4.48364,4.00952,-0.240723
655,-1.59445e-38,-0.0379316,-0.284415,9.99296,-0.711423,-0.685142,0.312256,4.0105,-0.242676
656,-1.59562e-38,-0.043836,-0.286315,10.0007,-0.807489,-0.744939,-2.53662,4.01221,-0.241943
657,-1.59678e-38,-0.0437404,-0.308092,10.0322,-0.668736,-0.782489,3.7063,4.01221,-0.246094
658,-1.59795e-38,-0.0437784,-0.312626,10.0356,-0.768581,-0.738433,-0.777588,4.01074,-0.23999
659,-1.59912e-38,-0.0431843,-0.316112,10.0152,-0.721655,-0.818528,1.04663,4.01001,-0.243164
660,-1.60029e-38,-0.0759958,-0.280058,9.99258,-0.749178,-0.876071,-3.38574,4.00977,-0.240479
661,-1.60146e-38,-0.0380115,-0.289338,10.0228,-0.710936,-0.809756,5.92383,4.01123,-0.244385
662,-1.60262e-38,-0.0556895,-0.284443,10.0078,-0.775509,-0.739112,-5.80103,4.01147,-0.244141
663,-1.60379e-38,-0.0549635,-0.2847,10.0299,-0.684835,-0.710475,4.1936,4.0105,-0.239502
664,-1.60496e-38,-0.0386486,-0.286749,10.0123,-0.605789,-0.813444,0.888672,4.0105,-0.245605
665,-1.60613e-38,-0.0527592,-0.29982,10.0288,-0.663716,-0.755133,2.8689,4.01074,-0.242432
666,-1.60729e-38,-0.0407866,-0.301658,10.0262,-0.644428,-0.778468,-2.42847,4.00952,-0.243164
667,-1.60846e-38,-0.0640646,-0.303019,9.98715,-0.683413,-0.788688,-5.44458,4.00977,-0.243164
668,-1.60963e-38,-0.059899,-0.280037,10.0128,-0.623271,-0.741276,0.295898,4.01245,-0.243408
669,-1.6108e-38,-0.0419188,-0.28199,10.019,-0.714266,-0.763881,-0.5271,4.01001,-0.247559
670,-1.61196e-38,-0.0579366,-0.292184,10.0267,-0.664779,-0.706377,-0.369141,4.00952,-0.239502
671,-1.61313e-38,-0.0365281,-0.313924,9.99787,-0.593392,-0.688856,-3.15186,4.01147,-0.244141
672,-1.6143e-38,-0.0279449,-0.284209,9.98702,-0.789725,-0.74946,-5.46045,4.01172,-0.24292
673,-1.61547e-38,-0.0684533,-0.298156,10.0088,-0.709706,-0.781478,-7.42676,4.01099,-0.244385
674,-1.61664e-38,-0.0476127,-0.294306,10.03,-0.721118,-0.835383,-0.606445,4.0105,-0.244141
675,-1.6178e-38,-0.0550783,-0.288578,10.02,-0.72843,-0.724563,1.70264,4.00977,-0.242432
676,-1.61897e-38,-0.0491182,-0.282348,10.0331,-0.780837,-0.791826,-7.18872,4.00952,-0.243652
677,-1.62014e-38,-0.05478,-0.290932,9.99615,-0.790878,-0.734783,4.56006,4.01123,-0.243408
678,-1.62131e-38,-0.0444187,-0.284485,10.02,-0.744875,-0.775894,-3.96387,4.0105,-0.245117
679,-1.62247e-38,-0.021832,-0.291857,10.0255,-0.731581,-0.688114,-7.8457,4.0105,-0.243652
680,-1.62364e-38,-0.0554794,-0.271716,10.022,-0.681236,-0.664177,-0.56665,4.01001,-0.240479
681,-1.62481e-38,-0.0515212,-0.286175,10.0115,-0.67076,-0.739252,6.25342,4.00977,-0.24707
682,-1.62598e-38,-0.0563053,-0.287372,10.0063,-0.761652,-0.819207,1.38672,4.01099,-0.243408
683,-1.62714e-38,-0.0842551,-0.305504,10.0159,-0.672105,-0.758707,-4.93384,4.01025,-0.242676
684,-1.62831e-38,-0.0539188,-0.293008,10.0004,-0.797281,-0.692135,-6.53516,4.01099,-0.241943
685,-1.62948e-38,-0.059722,-0.312947,10.0305,-0.691046,-0.77606,-4.73706,4.01025,-0.24585
686,-1.63065e-38,-0.0682018,-0.301523,10.0525,-0.71319,-0.835139,-2.18115,4.01123,-0.246826
687,-1.63182e-38,-0.0627022,-0.298808,10.0046,-0.778839,-0.724102,-4.56836,4.01147,-0.242432
688,-1.63298e-38,-0.0581624,-0.298021,10.0229,-0.700101,-0.691546,-7.45288,4.01074,-0.245117
689,-1.63415e-38,-0.050717,-0.310933,9.99936,-0.688267,-0.779992,-7.37524,4.01172,-0.238525
690,-1.63532e-38,-0.0353629,-0.30832,9.99871,-0.733284,-0.818657,-3.13794,4.01099,-0.246094
691,-1.63649e-38,-0.0401779,-0.28798,10.0174,-0.689228,-0.742326,-5.94507,4.01123,-0.241699
692,-1.63765e-38,-0.068224,-0.295557,10.0114,-0.624232,-0.80307,6.29077,4.01147,-0.241943
693,-1.63882e-38,-0.0487179,-0.282228,10.0076,-0.71547,-0.713728,0.0522461,4.00854,-0.247559
694,-1.63999e-38,-0.0567219,-0.289027,9.98927,-0.711141,-0.769362,3.59131,4.01001,-0.242432
695,-1.64116e-38,-0.0553869,-0.292853,10.0019,-0.697885,-0.769554,0.954102,4.01074,-0.24707
696,-1.64233e-38,-0.0565248,-0.297666,10.0109,-0.731414,-0.802238,-2.79541,4.00952,-0.241455
697,-1.64349e-38,-0.0619237,-0.290952,9.97879,-0.751893,-0.717672,6.97363,4.01074,-0.245361
698,-1.64466e-38,-0.044479,-0.299716,9.99545,-0.734757,-0.759552,-0.344238,4.0105,-0.243652
699,-1.64583e-38,-0.0417301,-0.301247,9.99527,-0.712665,-0.773319,4.36353,4.01099,-0.240967
700,-1.647e-38,-0.068879,-0.285253,10.0335,-0.503563,-0.730377,-0.0307617,4.01123,-0.246094
701,-1.64816e-38,-0.0396389,-0.304804,10.019,-0.671849,-0.806221,7.73364,4.01123,-0.241943
702,-1.64933e-38,-0.063331,-0.306587,10.0224,-0.727508,-0.807732,0.0217285,4.01172,-0.243652
703,-1.6505e-38,-0.0527898,-0.305109,9.97589,-0.701356,-0.728815,2.88306,4.00977,-0.241455
704,-1.65167e-38,-0.0484278,-0.279815,9.9963,-0.674999,-0.654047,-3.85938,4.01074,-0.242432
705,-1.65283e-38,-0.0440105,-0.296253,10.0371,-0.738164,-0.751458,-3.86035,4.01147,-0.24707
706,-1.654e-38,-0.0566986,-0.29996,10.0248,-0.786498,-0.814725,-4.12109,4.01025,-0.238525
707,-1.65517e-38,-0.067587,-0.279865,10.0164,-0.698795,-0.77679,3.67041,4.00952,-0.248535
708,-1.65634e-38,-0.0660101,-0.304618,10.0548,-0.725024,-0.780658,6.84302,4.0105,-0.245361
709,-1.65751e-38,-0.040564,-0.290635,9.9826,-0.664523,-0.700844,7.91748,4.01099,-0.243896
710,-1.65867e-38,-0.0327414,-0.289255,10.0302,-0.790993,-0.700959,-6.67627,4.00879,-0.247314
711,-1.65984e-38,-0.0769665,-0.300534,10.0065,-0.825393,-0.749857,2.10864,4.0105,-0.24292
712,-1.66101e-38,-0.0408455,-0.291029,9.98115,-0.749908,-0.794144,0.114746,4.01074,-0.245117
713,-1.66218e-38,-0.0447904,-0.271546,10.009,-0.772794,-0.80056,-5.43164,4.00977,-0.240967
714,-1.66334e-38,-0.0614238,-0.28378,9.99265,-0.673283,-0.733963,0.834961,4.01147,-0.244385
715,-1.66451e-38,-0.0580933,-0.294064,10.01,-0.724588,-0.743056,3.53857,4.01001,-0.239746
716,-1.66568e-38,-0.0461514,-0.296352,10.0092,-0.752597,-0.640151,-2.56104,4.01074,-0.24585
717,-1.66685e-38,-0.0497678,-0.310307,10.0212,-0.732542,-0.757669,7.80029,4.01025,-0.246582
718,-1.66801e-38,-0.0533734,-0.300984,9.99665,-0.795271,-0.759257,0.717285,4.01123,-0.244385
719,-1.66918e-38,-0.0589285,-0.29043,9.99803,-0.666867,-0.659643,1.74146,4.0105,-0.244141
720,-1.67035e-38,-0.0668517,-0.285169,10.0286,-0.729276,-0.742903,-7.16431,4.01074,-0.245361
721,-1.67152e-38,-0.0592006,-0.295513,10.0218,-0.661014,-0.7991,-0.424805,4.01196,-0.243896
722,-1.67269e-38,-0.0647451,-0.306245,10.0269,-0.855477,-0.714086,0.678955,4.0105,-0.243652
723,-1.67385e-38,-0.062977,-0.298874,10.0055,-0.822127,-0.669569,3.66724,4.01196,-0.239014
724,-1.67502e-38,-0.0487982,-0.295205,9.99391,-0.717378,-0.635131,0.638428,4.01147,-0.248047
725,-1.67619e-38,-0.0637011,-0.285587,10.018,-0.70703,-0.666457,4.59961,4.01074,-0.241455
726,-1.67736e-38,-0.0561361,-0.286234,9.98074,-0.762446,-0.81913,2.35596,4.01196,-0.245605
727,-1.67852e-38,-0.055293,-0.297356,9.98904,-0.688703,-0.799536,-1.07935,4.01099,-0.241211
728,-1.67969e-38,-0.0692107,-0.297513,10.0158,-0.799651,-0.680365,-6.46851,4.01025,-0.239014
729,-1.68086e-38,-0.0584341,-0.291107,9.97529,-0.736858,-0.679123,0.312256,4.01025,-0.244629
730,-1.68203e-38,-0.047103,-0.310263,9.99511,-0.730223,-0.798536,-4.17432,4.01099,-0.244385
731,-1.68319e-38,-0.0523712,-0.280961,10.0018,-0.782541,-0.707209,6.56714,4.01074,-0.239746
732,-1.68436e-38,-0.0515643,-0.303326,10.0055,-0.672771,-0.706863,-6.79541,4.00952,-0.243896
733,-1.68553e-38,-0.0513819,-0.281886,9.98906,-0.759091,-0.729045,-5.98413,4.01074,-0.243896
734,-1.6867e-38,-0.0404613,-0.304972,10.0417,-0.774779,-0.671195,5.30835,4.0105,-0.245117
735,-1.68787e-38,-0.0509888,-0.285829,10.0203,-0.71748,-0.672322,5.41382,4.01025,-0.241943
736,-1.68903e-38,-0.0770632,-0.296327,10.0231,-0.664305,-0.832949,1.00513,4.01172,-0.245605
737,-1.6902e-38,-0.0493467,-0.284233,10.0261,-0.658542,-0.70872,-0.148438,4.01123,-0.241455
738,-1.69137e-38,-0.0625015,-0.301267,9.98324,-0.819758,-0.787766,1.94922,4.01196,-0.24292
739,-1.69254e-38,-0.0503436,-0.305016,10.0319,-0.641496,-0.867797,-7.74072,4.01025,-0.243164
740,-1.6937e-38,-0.0392389,-0.290993,9.96445,-0.657108,-0.848728,7.90381,4.01147,-0.243896
741,-1.69487e-38,-0.0503591,-0.296549,9.97585,-0.69795,-0.770668,5.7168,4.00928,-0.246582
742,-1.69604e-38,-0.0457038,-0.301333,9.98629,-0.730275,-0.680583,7.99731,4.01025,-0.24292
743,-1.69721e-38,-0.0560577,-0.286425,9.99954,-0.669543,-0.750664,0.994141,4.01025,-0.245605
744,-1.69837e-38,-0.0590184,-0.281446,10.0409,-0.70069,-0.654303,-1.86572,4.0105,-0.241943
745,-1.69954e-38,-0.0476086,-0.28872,10.0303,-0.658478,-0.705301,6.5271,4.01123,-0.246338
746,-1.70071e-38,-0.0503883,-0.285913,10.0198,-0.726932,-0.724166,-0.803467,4.01074,-0.243164
747,-1.70188e-38,-0.0499488,-0.291767,10.0047,-0.777379,-0.765417,-4.33179,4.01099,-0.241455
748,-1.70305e-38,-0.0687481,-0.295095,9.98922,-0.858218,-0.831912,-7.26709,4.00928,-0.244629
749,-1.70421e-38,-0.0572567,-0.293054,10.0036,-0.769669,-0.76616,-5.95825,4.01147,-0.242432
750,-1.70538e-38,-0.0550692,-0.293934,9.99975,-0.621593,-0.751458,2.90869,4.01025,-0.24707
751,-1.70655e-38,-0.0634351,-0.287593,10.0158,-0.698334,-0.720183,5.73999,4.01147,-0.245361
752,-1.70772e-38,-0.0475757,-0.295549,9.9975,-0.74029,-0.632428,-2.23218,4.01001,-0.240967
753,-1.70888e-38,-0.0556355,-0.302435,9.98281,-0.815775,-0.793926,-0.605957,4.01001,-0.247559
754,-1.71005e-38,-0.0406896,-0.271011,10.0051,-0.696746,-0.78304,4.08936,4.01001,-0.242432
755,-1.71122e-38,-0.0657703,-0.28911,10.0071,-0.78815,-0.720042,-0.225342,4.01001,-0.243164
756,-1.71239e-38,-0.0440146,-0.280928,9.9752,-0.730441,-0.688792,-1.22241,4.01001,-0.244385
757,-1.71355e-38,-0.0665464,-0.299445,10.0213,-0.823856,-0.734309,-5.99756,4.01123,-0.244385
758,-1.71472e-38,-0.0611028,-0.295501,10.0122,-0.706069,-0.73363,6.86792,4.01123,-0.246094
759,-1.71589e-38,-0.0623612,-0.303562,10.0153,-0.843387,-0.780325,-5.82593,4.01025,-0.238525
760,-1.71706e-38,-0.0634621,-0.295524,9.99977,-0.776278,-0.773512,-4.59351,4.01074,-0.245117
761,-1.71823e-38,-0.0494444,-0.290154,10.0142,-0.763996,-0.811638,-1.25049,4.01123,-0.240479
762,-1.71939e-38,-0.0523447,-0.289641,10.0127,-0.696118,-0.757106,3.81274,4.01074,-0.245605
763,-1.72056e-38,-0.0494322,-0.296103,10.025,-0.616189,-0.820488,-7.68921,4.01123,-0.243408
764,-1.72173e-38,-0.0502176,-0.286686,9.9947,-0.785934,-0.713625,-2.68115,4.01245,-0.241943
765,-1.7229e-38,-0.0497462,-0.278348,9.9993,-0.725997,-0.736345,4.19214,4.01147,-0.245117
766,-1.72406e-38,-0.0806509,-0.302243,10.0012,-0.737319,-0.691648,-7.68945,4.01147,-0.243896
767,-1.72523e-38,-0.0618243,-0.313769,9.96568,-0.663089,-0.792543,4.4563,4.01025,-0.243652
768,-1.7264e-38,-0.0538027,-0.290596,10.0006,-0.678022,-0.692007,-2.46802,4.01001,-0.242432
769,-1.72757e-38,-0.0600247,-0.296034,10.0394,-0.816595,-0.742749,-2.30981,4.00952,-0.240479
770,-1.72873e-38,-0.0630058,-0.290528,10.0182,-0.69923,-0.667212,-3.70093,4.01001,-0.244629
771,-1.7299e-38,-0.0568819,-0.282493,10.0039,-0.671644,-0.757682,-6.97925,4.01001,-0.24292
772,-1.73107e-38,-0.0597552,-0.29797,10.0065,-0.613948,-0.749908,3.07715,4.01196,-0.246582
773,-1.73224e-38,-0.0413511,-0.289796,10.0172,-0.713766,-0.837714,3.7854,4.01196,-0.240967
774,-1.73341e-38,-0.0573543,-0.297397,10.025,-0.850892,-0.727662,-6.84888,4.01025,-0.247314
775,-1.73457e-38,-0.0297118,-0.296945,10.0178,-0.814674,-0.621978,3.40625,4.01099,-0.24292
776,-1.73574e-38,-0.0557905,-0.29889,10.0362,-0.805888,-0.665471,0.520508,4.01123,-0.241943
777,-1.73691e-38,-0.0408276,-0.308382,10.014,-0.743799,-0.756017,6.63403,4.00977,-0.244141
778,-1.73808e-38,-0.0384293,-0.286928,10.0161,-0.731363,-0.706261,-5.64233,4.01025,-0.243408
779,-1.73924e-38,-0.0526777,-0.296446,9.98679,-0.843746,-0.792697,-5.03784,4.00928,-0.24707
780,-1.74041e-38,-0.0389332,-0.284483,10.0148,-0.801687,-0.779403,6.03052,4.01001,-0.243896
781,-1.74158e-38,-0.0512663,-0.293227,10.0169,-0.676203,-0.744491,1.4646,4.01147,-0.244873
782,-1.74275e-38,-0.0515059,-0.297031,10.0369,-0.732606,-0.696874,-5.48535,4.0105,-0.247559
783,-1.74392e-38,-0.0512779,-0.283469,9.94611,-0.735321,-0.823075,1.20508,4.00952,-0.240479
784,-1.74508e-38,-0.0496051,-0.281113,10.0515,-0.72715,-0.791032,6.02856,4.01123,-0.247559
785,-1.74625e-38,-0.0602364,-0.287176,10.0666,-0.663242,-0.748614,-6.45654,4.01147,-0.238037
786,-1.74742e-38,-0.0585014,-0.277511,9.94584,-0.682299,-0.819079,-0.00463867,4.01147,-0.24292
787,-1.74859e-38,-0.0298157,-0.302832,9.97464,-0.637782,-0.787522,-5.61597,4.01025,-0.24292
788,-1.74975e-38,-0.0558191,-0.290769,10.0479,-0.603459,-0.724383,-7.31982,4.00952,-0.24292
789,-1.75092e-38,-0.0445419,-0.283455,10.0479,-0.736499,-0.7647,6.39746,4.01001,-0.244141
790,-1.75209e-38,-0.0567597,-0.302625,10.0084,-0.735052,-0.752905,-3.29565,4.01099,-0.242432
791,-1.75326e-38,-0.0572086,-0.289674,10.0116,-0.689382,-0.782131,7.14526,4.01001,-0.244629
792,-1.75442e-38,-0.0472226,-0.282459,10.0173,-0.784551,-0.73048,-5.32788,4.0105,-0.24585
793,-1.75559e-38,-0.0534277,-0.302524,10.04,-0.783885,-0.697924,-0.764893,4.01123,-0.244385
794,-1.75676e-38,-0.0649499,-0.273996,10.0381,-0.553434,-0.675204,4.71826,4.0105,-0.244141
795,-1.75793e-38,-0.0410431,-0.28326,10.0209,-0.738548,-0.744516,4.56006,4.01123,-0.239502
796,-1.7591e-38,-0.0578269,-0.292906,10.0066,-0.765853,-0.746488,2.72339,4.01172,-0.244141
797,-1.76026e-38,-0.0449286,-0.275227,9.9891,-0.636232,-0.764816,7.0647,4.01147,-0.239502
798,-1.76143e-38,-0.046493,-0.289688,10.0248,-0.760026,-0.732874,4.69092,4.01123,-0.244385
799,-1.7626e-38,-0.0624768,-0.289723,10.0113,-0.686807,-0.744824,-1.47119,4.01001,-0.242188
800,-1.76377e-38,-0.0520062,-0.298573,9.99692,-0.76447,-0.734834,3.93066,4.01099,-0.244873
801,-1.76493e-38,-0.0452197,-0.292484,10.0304,-0.746847,-0.804658,1.09937,4.01001,-0.245117
802,-1.7661e-38,-0.0741502,-0.306318,10.0202,-0.707632,-0.694594,-0.687256,4.01221,-0.24292
803,-1.76727e-38,-0.0590657,-0.276759,9.99082,-0.817389,-0.760961,2.35815,4.01025,-0.243164
804,-1.76844e-38,-0.0364275,-0.297918,9.97807,-0.80357,-0.740482,7.48438,4.01099,-0.243896
805,-1.7696e-38,-0.0226875,-0.291683,10.0073,-0.784782,-0.806067,0.810547,4.01025,-0.240967
806,-1.77077e-38,-0.0221948,-0.294523,10.0035,-0.750792,-0.738189,-4.41064,4.01123,-0.248535
807,-1.77194e-38,-0.0373141,-0.309753,10.0087,-0.737421,-0.699333,1.62231,4.01099,-0.240967
808,-1.77311e-38,-0.0468231,-0.301672,10.0104,-0.729532,-0.722181,0.284912,4.01099,-0.23877
809,-1.77428e-38,-0.0748043,-0.297208,10.013,-0.752918,-0.630507,-1.5769,4.01025,-0.241943
810,-1.77544e-38,-0.0614751,-0.282126,10.0229,-0.74823,-0.696413,2.19873,4.01172,-0.24585
811,-1.77661e-38,-0.0295291,-0.295333,9.97326,-0.692852,-0.674026,2.1731,4.01123,-0.243408
812,-1.77778e-38,-0.04044,-0.30366,9.99002,-0.830529,-0.75717,2.74902,4.01196,-0.239502
813,-1.77895e-38,-0.0597375,-0.300584,10.0269,-0.705736,-0.694056,1.23145,4.00903,-0.247559
814,-1.78011e-38,-0.0520531,-0.292801,10.0088,-0.717019,-0.710232,-7.42383,4.00879,-0.241455
815,-1.78128e-38,-0.0520355,-0.297664,10.0122,-0.742173,-0.742864,1.19189,4.00952,-0.243652
816,-1.78245e-38,-0.0277141,-0.304739,10.0135,-0.753776,-0.750676,0.167969,4.01001,-0.243896
817,-1.78362e-38,-0.0638784,-0.300356,10.026,-0.793977,-0.754531,-5.09326,4.01172,-0.241211
818,-1.78478e-38,-0.055947,-0.297651,9.97415,-0.732157,-0.802571,-6.73145,4.0105,-0.245117
819,-1.78595e-38,-0.0585822,-0.284166,9.99992,-0.750945,-0.754788,1.9895,4.01123,-0.24292
820,-1.78712e-38,-0.0474275,-0.290312,10.0244,-0.719721,-0.663063,5.05908,4.0105,-0.243652
821,-1.78829e-38,-0.0660395,-0.292759,10.0275,-0.755095,-0.74718,4.69189,4.0105,-0.24292
822,-1.78946e-38,-0.0610772,-0.290574,10.0183,-0.699256,-0.783066,1.88623,4.01001,-0.243896
823,-1.79062e-38,-0.0321567,-0.278539,10.0028,-0.760628,-0.829069,-2.09961,4.00903,-0.242676
824,-1.79179e-38,-0.0493589,-0.283442,10.0038,-0.793145,-0.732106,-0.281494,4.01245,-0.243896
825,-1.79296e-38,-0.0589276,-0.291513,9.96686,-0.830977,-0.729442,-5.97021,4.01025,-0.243164
826,-1.79413e-38,-0.00598583,-0.31046,10.0184,-0.711256,-0.685078,0.219727,4.01074,-0.24292
827,-1.79529e-38,-0.0469082,-0.313129,10.049,-0.647297,-0.805978,6.77759,4.01025,-0.244629
828,-1.79646e-38,-0.0596729,-0.273508,10.0117,-0.672118,-0.753648,-0.224854,4.00952,-0.243896
829,-1.79763e-38,-0.0554843,-0.272765,10.0005,-0.691546,-0.710731,-0.501953,4.01074,-0.243408
830,-1.7988e-38,-0.0596744,-0.290318,9.98624,-0.72131,-0.717134,0.915283,4.01025,-0.244629
831,-1.79996e-38,-0.0654125,-0.288596,10.0055,-0.751483,-0.796667,-2.52124,4.0105,-0.242432
832,-1.80113e-38,-0.0589246,-0.291711,10.0049,-0.722219,-0.729826,6.85425,4.01172,-0.246582
833,-1.8023e-38,-0.0523812,-0.305979,10.0252,-0.74499,-0.743991,7.64233,4.01099,-0.243408
834,-1.80347e-38,-0.0589908,-0.275409,10.0013,-0.762638,-0.725446,3.44434,4.01196,-0.246826
835,-1.80464e-38,-0.0630116,-0.291819,10.0204,-0.758053,-0.731901,7.35376,4.01099,-0.24292
836,-1.8058e-38,-0.0504026,-0.295352,9.97857,-0.763599,-0.756171,6.21338,4.0105,-0.243896
837,-1.80697e-38,-0.0603027,-0.275775,10.0074,-0.753558,-0.67044,-1.36792,4.01123,-0.243164
838,-1.80814e-38,-0.056403,-0.285766,10.0099,-0.658888,-0.671003,5.2666,4.01245,-0.242432
839,-1.80931e-38,-0.0463892,-0.293834,10.0121,-0.82629,-0.626755,4.20703,4.01025,-0.243164
840,-1.81047e-38,-0.0570589,-0.277984,9.99625,-0.562604,-0.790058,3.27661,4.00952,-0.243896
841,-1.81164e-38,-0.0578432,-0.2976,10.0203,-0.710244,-0.695311,-7.26855,4.0105,-0.241943
842,-1.81281e-38,-0.0664263,-0.276902,10.0084,-0.732503,-0.732196,5.79321,4.01074,-0.243164
843,-1.81398e-38,-0.0626527,-0.285809,10.0222,-0.672246,-0.802622,-5.31201,4.00854,-0.23999
844,-1.81514e-38,-0.0537537,-0.277563,9.99117,-0.725728,-0.767735,3.12988,4.01172,-0.244629
845,-1.81631e-38,-0.0555845,-0.298583,10.0096,-0.818106,-0.742288,7.52222,4.01221,-0.24292
846,-1.81748e-38,-0.0498979,-0.295581,9.98563,-0.778353,-0.848203,-2.86255,4.01074,-0.241211
847,-1.81865e-38,-0.0434138,-0.277936,9.99821,-0.757106,-0.81607,7.21045,4.01001,-0.244629
848,-1.81982e-38,-0.0519456,-0.266622,10.0316,-0.748666,-0.715879,-3.93774,4.0105,-0.243408
849,-1.82098e-38,-0.0663922,-0.278359,10.0131,-0.741955,-0.759372,1.4668,4.00977,-0.248535
850,-1.82215e-38,-0.0635434,-0.291864,10.0117,-0.77679,-0.788649,2.4873,4.01147,-0.238525
851,-1.82332e-38,-0.0465614,-0.287198,10.0184,-0.763624,-0.797205,7.94629,4.00903,-0.244141
852,-1.82449e-38,-0.0503349,-0.284326,10.0119,-0.740584,-0.773473,-5.84058,4.01147,-0.241943
853,-1.82565e-38,-0.0503434,-0.287322,9.99503,-0.652164,-0.84381,-7.30811,4.0105,-0.242432
854,-1.82682e-38,-0.0607735,-0.275713,10.0101,-0.7652,-0.730954,2.94727,4.01099,-0.245117
855,-1.82799e-38,-0.058472,-0.275079,9.98249,-0.737203,-0.694223,6.85522,4.01099,-0.238525
856,-1.82916e-38,-0.0603868,-0.295318,10.0157,-0.793606,-0.765328,0.114746,4.01074,-0.246582
857,-1.83033e-38,-0.0375545,-0.29339,10.0273,-0.729865,-0.746847,-0.869141,4.01074,-0.243896
858,-1.83149e-38,-0.0423518,-0.292462,10.0003,-0.782425,-0.787292,0.442627,4.01074,-0.244141
859,-1.83266e-38,-0.0550888,-0.276369,10.0161,-0.844885,-0.719248,-6.01123,4.01147,-0.241943
860,-1.83383e-38,-0.0586265,-0.28485,9.98234,-0.684464,-0.704622,-5.23877,4.01245,-0.23999
861,-1.835e-38,-0.0555238,-0.296739,10.0382,-0.712255,-0.665483,5.5708,4.0105,-0.242188
862,-1.83616e-38,-0.0684402,-0.282614,10.0076,-0.76803,-0.739649,7.84009,4.01001,-0.243408
863,-1.83733e-38,-0.0537169,-0.284188,10.0231,-0.714317,-0.7793,-5.5647,4.01123,-0.245117
864,-1.8385e-38,-0.057441,-0.286279,9.98459,-0.731581,-0.819335,2.59277,4.01123,-0.245361
865,-1.83967e-38,-0.0420932,-0.277032,10.0141,-0.69973,-0.745758,-1.87842,4.01025,-0.243408
866,-1.84083e-38,-0.0529513,-0.286473,9.94946,-0.813816,-0.755441,6.48779,4.01123,-0.245117
867,-1.842e-38,-0.0379877,-0.29384,9.99195,-0.795757,-0.775112,-0.803467,4.0105,-0.24292
868,-1.84317e-38,-0.0562841,-0.285895,10.0129,-0.631173,-0.857116,-5.98462,4.01123,-0.244629
869,-1.84434e-38,-0.0474006,-0.295592,9.98918,-0.695593,-0.719645,0.467773,4.01147,-0.240967
870,-1.84551e-38,-0.063272,-0.293771,10.0073,-0.772897,-0.787548,-2.573,4.01001,-0.242676
871,-1.84667e-38,-0.0701457,-0.293571,9.99888,-0.852762,-0.765007,0.441162,4.01172,-0.24585
872,-1.84784e-38,-0.0538627,-0.288864,9.98163,-0.751662,-0.761345,-0.448486,4.01001,-0.242432
873,-1.84901e-38,-0.0458981,-0.298553,9.98382,-0.892695,-0.728738,1.36133,4.01025,-0.244629
874,-1.85018e-38,-0.052109,-0.282649,10.0213,-0.807566,-0.786997,4.65308,4.01025,-0.240479
875,-1.85134e-38,-0.0543952,-0.301354,10.0086,-0.801956,-0.782925,-5.26318,4.01123,-0.244629
876,-1.85251e-38,-0.0528368,-0.292889,9.98736,-0.766621,-0.843361,-1.33911,4.00928,-0.243896
877,-1.85368e-38,-0.0698303,-0.289954,9.97071,-0.711627,-0.804479,-3.83105,4.00928,-0.241455
878,-1.85485e-38,-0.0507256,-0.310398,10.03,-0.761101,-0.810921,-7.67627,4.01099,-0.246094
879,-1.85601e-38,-0.0623777,-0.291824,10.0164,-0.644083,-0.706812,-0.108398,4.0105,-0.241455
880,-1.85718e-38,-0.0492564,-0.279413,10.0132,-0.812676,-0.72154,-3.75366,4.01025,-0.245605
881,-1.85835e-38,-0.0723645,-0.286431,10.0256,-0.76593,-0.832629,1.15161,4.01025,-0.240967
882,-1.85952e-38,-0.068676,-0.283365,10.035,-0.733912,-0.821666,3.61694,4.01025,-0.246094
883,-1.86069e-38,-0.0527885,-0.288851,10.0205,-0.761025,-0.849752,-0.528564,4.01099,-0.242676
884,-1.86185e-38,-0.0441782,-0.272748,10.0162,-0.703162,-0.776547,6.35522,4.01221,-0.239502
885,-1.86302e-38,-0.0529451,-0.288055,9.99684,-0.799113,-0.609593,4.15576,4.00952,-0.243164
886,-1.86419e-38,-0.0458961,-0.298419,10.0083,-0.673424,-0.699858,-3.55835,4.01147,-0.241455
887,-1.86536e-38,-0.037352,-0.283142,9.98915,-0.848215,-0.806823,5.4397,4.01025,-0.245605
888,-1.86652e-38,-0.0613212,-0.30879,10.0216,-0.707235,-0.740866,5.84692,4.01001,-0.240967
889,-1.86769e-38,-0.0603797,-0.29172,10.0162,-0.719606,-0.779902,2.10742,4.01099,-0.241699
890,-1.86886e-38,-0.0591706,-0.29038,10.0072,-0.775932,-0.748115,-7.96631,4.01245,-0.24585
891,-1.87003e-38,-0.0662145,-0.28933,10.0191,-0.852352,-0.697821,-7.87183,4.01025,-0.238037
892,-1.87119e-38,-0.0522889,-0.303146,10.0185,-0.804915,-0.670465,5.61133,4.00952,-0.246582
893,-1.87236e-38,-0.0572539,-0.274681,9.99084,-0.881104,-0.764252,-6.88965,4.01123,-0.244385
894,-1.87353e-38,-0.0613395,-0.305138,9.99158,-0.758835,-0.689881,4.03564,4.01099,-0.246338
895,-1.8747e-38,-0.0430621,-0.299719,9.99836,-0.746309,-0.813342,-5.6438,4.01123,-0.239746
896,-1.87587e-38,-0.0524439,-0.312506,9.99964,-0.782656,-0.743082,-3.91064,4.01001,-0.240479
897,-1.87703e-38,-0.045512,-0.297726,10.0176,-0.762216,-0.76844,-4.40869,4.01001,-0.244629
898,-1.8782e-38,-0.0384927,-0.294092,10.0046,-0.704456,-0.733528,-5.01294,4.0105,-0.242432
899,-1.87937e-38,-0.0375537,-0.303787,10.0147,-0.728302,-0.683119,-6.43042,4.01123,-0.247559
900,-1.88054e-38,-0.0733183,-0.27932,9.9909,-0.701535,-0.790724,2.1228,4.00952,-0.23999
901,-1.8817e-38,-0.0420609,-0.279585,10.009,-0.65689,-0.69631,3.6936,4.01196,-0.243896
902,-1.88287e-38,-0.0409385,-0.304169,9.9877,-0.711743,-0.731389,-4.73779,4.01074,-0.242676
903,-1.88404e-38,-0.0531127,-0.291442,9.99952,-0.754467,-0.8288,4.78418,4.01025,-0.239502
904,-1.88521e-38,-0.061225,-0.28417,10.0086,-0.752508,-0.740136,0.467285,4.01172,-0.243652
905,-1.88637e-38,-0.0371906,-0.299715,9.98658,-0.781349,-0.82287,-3.0188,4.00977,-0.243896
906,-1.88754e-38,-0.0733245,-0.310049,10.0273,-0.76981,-0.853723,-6.39087,4.01099,-0.242676
907,-1.88871e-38,-0.0634359,-0.306018,10.0234,-0.641893,-0.783411,5.30981,4.00952,-0.243652
908,-1.88988e-38,-0.0460662,-0.30009,10.0081,-0.709233,-0.704955,-5.36499,4.00903,-0.240479
909,-1.89105e-38,-0.0421588,-0.299196,10.0395,-0.726586,-0.745157,2.40918,4.01123,-0.246094
910,-1.89221e-38,-0.0612551,-0.294024,10.0326,-0.759936,-0.839776,-6.87549,4.01074,-0.242432
911,-1.89338e-38,-0.0476477,-0.295048,9.9779,-0.731696,-0.776675,6.17554,4.00928,-0.245117
912,-1.89455e-38,-0.0562609,-0.303597,10.0148,-0.710347,-0.764649,-2.49561,4.01099,-0.240967
913,-1.89572e-38,-0.0539139,-0.295353,10.0175,-0.74239,-0.720592,-6.8479,4.00952,-0.241211
914,-1.89688e-38,-0.0513063,-0.289947,10.0274,-0.657313,-0.818913,-3.55566,4.00928,-0.243896
915,-1.89805e-38,-0.0526941,-0.303023,9.99291,-0.742236,-0.751483,1.77856,4.01196,-0.243408
916,-1.89922e-38,-0.0435663,-0.304306,10.031,-0.737959,-0.776098,1.80762,4.01001,-0.245117
917,-1.90039e-38,-0.0578465,-0.294424,10.015,-0.668852,-0.659554,-0.529541,4.01172,-0.241455
918,-1.90155e-38,-0.0505905,-0.310461,10.0034,-0.773716,-0.749204,-6.69067,4.00977,-0.244873
919,-1.90272e-38,-0.0565654,-0.3019,10.0107,-0.771462,-0.701305,4.58472,4.01196,-0.241211
920,-1.90389e-38,-0.0533002,-0.290494,9.9952,-0.672899,-0.737805,1.83252,4.01099,-0.240479
921,-1.90506e-38,-0.0678461,-0.281857,9.99576,-0.752226,-0.817235,-7.16431,4.01099,-0.243164
922,-1.90623e-38,-0.0647051,-0.292037,9.97784,-0.706684,-0.676664,-5.74976,4.01245,-0.240479
923,-1.90739e-38,-0.0400018,-0.278433,10.0016,-0.728815,-0.740905,-2.44214,4.01025,-0.244141
924,-1.90856e-38,-0.0454844,-0.294816,9.97997,-0.668954,-0.756171,-2.12695,4.01001,-0.244385
925,-1.90973e-38,-0.050581,-0.29866,10.0153,-0.763266,-0.774946,5.68726,4.01147,-0.241943
926,-1.9109e-38,-0.0655024,-0.286198,10.0236,-0.756529,-0.852378,2.28003,4.00977,-0.243652
927,-1.91206e-38,-0.0508466,-0.280084,10.0159,-0.775663,-0.718287,-5.64062,4.00903,-0.24292
928,-1.91323e-38,-0.053025,-0.290754,10.004,-0.729967,-0.725229,-1.39136,4.00903,-0.243164
929,-1.9144e-38,-0.0590069,-0.294303,9.96911,-0.784679,-0.66629,-1.34204,4.01147,-0.241943
930,-1.91557e-38,-0.0305256,-0.30104,10.005,-0.719209,-0.702125,-3.96216,4.00903,-0.24585
931,-1.91673e-38,-0.0774356,-0.271524,10.0032,-0.739944,-0.760128,0.875244,4.01074,-0.244141
932,-1.9179e-38,-0.0496155,-0.301562,9.99016,-0.667661,-0.746399,-7.20337,4.0105,-0.242432
933,-1.91907e-38,-0.0415438,-0.303743,10.0154,-0.738356,-0.752341,7.10425,4.01123,-0.246094
934,-1.92024e-38,-0.0384832,-0.293839,10.0182,-0.752943,-0.69024,2.75122,4.0105,-0.242432
935,-1.92141e-38,-0.0485612,-0.299559,10.0075,-0.737652,-0.76593,3.8269,4.01025,-0.245117
936,-1.92257e-38,-0.0567966,-0.320924,10.0077,-0.746322,-0.742992,-0.817627,4.01123,-0.244873
937,-1.92374e-38,-0.064881,-0.29243,10.0027,-0.813508,-0.795143,1.89844,4.01074,-0.241943
938,-1.92491e-38,-0.0569566,-0.284919,9.98823,-0.779326,-0.754685,0.600098,4.01074,-0.242188
939,-1.92608e-38,-0.0655172,-0.278727,10.0157,-0.69964,-0.673693,4.77075,4.0105,-0.241455
940,-1.92724e-38,-0.0525127,-0.302932,10.0213,-0.752162,-0.806746,3.55103,4.01074,-0.245605
941,-1.92841e-38,-0.0494928,-0.274303,10.0135,-0.736986,-0.752969,4.64062,4.00977,-0.246338
942,-1.92958e-38,-0.0676557,-0.308245,10.0241,-0.804172,-0.698129,-3.177,4.0105,-0.248291
943,-1.93075e-38,-0.0532173,-0.295776,10.008,-0.77802,-0.777533,-0.659424,4.01074,-0.240479
944,-1.93192e-38,-0.0551595,-0.288421,10.0406,-0.718723,-0.736653,-5.48462,4.01025,-0.240967
945,-1.93308e-38,-0.0492375,-0.279589,10.0155,-0.729455,-0.729327,5.76636,4.01123,-0.246094
946,-1.93425e-38,-0.0629351,-0.295845,10.0074,-0.754173,-0.853863,-3.85913,4.01074,-0.241943
947,-1.93542e-38,-0.0540491,-0.310095,10.0347,-0.779377,-0.718159,1.91138,4.01074,-0.244629
948,-1.93659e-38,-0.0621515,-0.29096,10.0231,-0.698987,-0.786434,-5.34155,4.01099,-0.243896
949,-1.93775e-38,-0.0482565,-0.309675,10.0106,-0.787715,-0.736998,5.65039,4.00977,-0.242432
950,-1.93892e-38,-0.0591393,-0.304539,10.0382,-0.767761,-0.735359,-1.56323,4.01001,-0.243652
951,-1.94009e-38,-0.0477648,-0.310816,10.0274,-0.728046,-0.68025,1.0979,4.01099,-0.239502
952,-1.94126e-38,-0.0623408,-0.292318,10.0329,-0.632864,-0.679712,-6.08618,4.00879,-0.246094
953,-1.94242e-38,-0.0528093,-0.310984,10.0152,-0.722385,-0.694927,2.01807,4.00952,-0.241943
954,-1.94359e-38,-0.0567902,-0.283609,10.0301,-0.623514,-0.749255,-3.88525,4.0105,-0.242676
955,-1.94476e-38,-0.0545798,-0.28899,10.0072,-0.739944,-0.679546,-3.53076,4.01025,-0.242676
956,-1.94593e-38,-0.0504535,-0.281295,10.0025,-0.811869,-0.745349,-2.44385,4.01147,-0.242432
957,-1.9471e-38,-0.0793774,-0.281169,10.0125,-0.696797,-0.736832,-7.55933,4.01196,-0.245117
958,-1.94826e-38,-0.0456992,-0.279282,10.012,-0.590101,-0.759462,3.89062,4.01172,-0.240479
959,-1.94943e-38,-0.0424245,-0.286215,10.0018,-0.761319,-0.795079,-3.4939,4.01196,-0.244629
960,-1.9506e-38,-0.0493945,-0.305229,10.0391,-0.779403,-0.789315,-2.65259,4.01074,-0.241943
961,-1.95177e-38,-0.0429689,-0.291908,10.0107,-0.697488,-0.730044,3.72192,4.01001,-0.243408
962,-1.95293e-38,-0.0306792,-0.281673,10.0333,-0.76657,-0.746258,5.53247,4.00977,-0.24707
963,-1.9541e-38,-0.0379206,-0.285053,10.0042,-0.779838,-0.741263,7.23584,4.01099,-0.240967
964,-1.95527e-38,-0.0565571,-0.297129,9.99333,-0.802251,-0.753865,-5.85352,4.01147,-0.246094
965,-1.95644e-38,-0.0517779,-0.30113,9.98886,-0.733297,-0.754147,1.3606,4.01074,-0.23999
966,-1.9576e-38,-0.0626553,-0.312684,10.0052,-0.707081,-0.813585,0.24707,4.01001,-0.243408
967,-1.95877e-38,-0.0645464,-0.28533,9.98854,-0.813482,-0.727086,1.11255,4.00977,-0.241455
968,-1.95994e-38,-0.0759695,-0.301649,10.0154,-0.715329,-0.708387,2.08228,4.0105,-0.241943
969,-1.96111e-38,-0.0468307,-0.304976,10.0221,-0.7454,-0.815301,-2.53613,4.01196,-0.245605
970,-1.96228e-38,-0.0394558,-0.290045,9.99203,-0.726535,-0.822537,1.33228,4.01221,-0.241455
971,-1.96344e-38,-0.0515141,-0.305268,10.0099,-0.813777,-0.816031,5.94946,4.01172,-0.244141
972,-1.96461e-38,-0.0446095,-0.288998,9.98743,-0.797743,-0.713318,-1.15845,4.01147,-0.243896
973,-1.96578e-38,-0.0664885,-0.301706,9.99901,-0.823203,-0.794003,2.19946,4.01123,-0.243896
974,-1.96695e-38,-0.0641599,-0.296744,9.99401,-0.710577,-0.730428,0.785645,4.00928,-0.246094
975,-1.96811e-38,-0.0610441,-0.313453,9.98261,-0.662602,-0.813905,-5.14453,4.01074,-0.23999
976,-1.96928e-38,-0.0439317,-0.284596,10.0405,-0.670248,-0.813047,6.30371,4.01147,-0.24707
977,-1.97045e-38,-0.0689243,-0.291784,10.0308,-0.791262,-0.79805,7.05322,4.01001,-0.240479
978,-1.97162e-38,-0.035773,-0.300175,10.0068,-0.762779,-0.782118,-3.20386,4.01099,-0.244385
979,-1.97278e-38,-0.0724981,-0.297479,10.0289,-0.748717,-0.715726,3.11841,4.0105,-0.244873
980,-1.97395e-38,-0.0437404,-0.283465,9.99877,-0.782733,-0.746437,-3.91138,4.0105,-0.241455
981,-1.97512e-38,-0.0634262,-0.285717,9.993,-0.78021,-0.729391,-3.04663,4.01123,-0.246094
982,-1.97629e-38,-0.0464866,-0.302232,9.98044,-0.787497,-0.754045,-2.05127,4.01196,-0.240967
983,-1.97746e-38,-0.0567104,-0.291453,10.0124,-0.756196,-0.738266,-4.69629,4.00903,-0.242676
984,-1.97862e-38,-0.0527899,-0.303106,10.0035,-0.771795,-0.75886,-2.41724,4.01099,-0.241943
985,-1.97979e-38,-0.0437594,-0.306192,10.0136,-0.703969,-0.761857,-6.90137,4.0105,-0.241455
986,-1.98096e-38,-0.0560983,-0.282994,10.0047,-0.649052,-0.727047,1.80811,4.00952,-0.246582
987,-1.98213e-38,-0.0540211,-0.300849,10.0303,-0.76908,-0.802686,7.91797,4.01099,-0.24292
988,-1.98329e-38,-0.0485543,-0.301352,10.0059,-0.739547,-0.800893,6.50195,4.01025,-0.24707
989,-1.98446e-38,-0.0668203,-0.290034,9.99984,-0.67838,-0.748153,-0.161865,4.01123,-0.239502
990,-1.98563e-38,-0.0511706,-0.287343,10.0267,-0.602716,-0.811011,3.66919,4.01025,-0.243164
991,-1.9868e-38,-0.0549958,-0.287409,10.018,-0.663114,-0.745976,-4.04346,4.01123,-0.242188
992,-1.98796e-38,-0.0647449,-0.285142,10.0286,-0.777968,-0.727201,5.29395,4.01147,-0.243408
993,-1.98913e-38,-0.0540429,-0.289548,10.0218,-0.678124,-0.859524,-4.64722,4.01147,-0.244629
994,-1.9903e-38,-0.0521686,-0.297377,10.0078,-0.620031,-0.729148,5.6875,4.01123,-0.241455
995,-1.99147e-38,-0.065095,-0.289418,9.99345,-0.712959,-0.717852,-3.75537,4.01172,-0.246094
996,-1.99264e-38,-0.061371,-0.312858,10.0071,-0.830926,-0.736051,6.48853,4.01074,-0.240479
997,-1.9938e-38,-0.0499684,-0.295788,10.0436,-0.778276,-0.760576,1.77979,4.01099,-0.245361
998,-1.99497e-38,-0.0421205,-0.290867,9.99185,-0.768594,-0.775023,2.12207,4.01025,-0.244629
999,-1.99614e-38,-0.0537471,-0.280451,10.011,-0.797922,-0.706223,-2.39038,4.01074,-0.243408
1000,-1.99731e-38,-0.0629845,-0.271919,10.039,-0.801303,-0.644723,4.69238,4.01025,-0.245117
1001,-1.99847e-38,-0.0538608,-0.303609,10.0307,-0.608838,-0.692237,2.25146,4.01147,-0.244385
1002,-1.99964e-38,-0.0571417,-0.287218,10.0351,-0.782963,-0.88583,-6.21899,4.01001,-0.242676
1003,-2.00081e-38,-0.0432335,-0.274626,10.0005,-0.771373,-0.714765,-5.62988,4.01074,-0.244385
1004,-2.00198e-38,-0.0330741,-0.28035,10.0084,-0.794605,-0.786869,4.78491,4.00977,-0.240479
1005,-2.00314e-38,-0.0335952,-0.296441,9.9807,-0.758835,-0.78824,1.38501,4.01196,-0.244629
1006,-2.00431e-38,-0.0665036,-0.286136,9.99059,-0.772359,-0.671567,3.01221,4.01147,-0.23999
1007,-2.00548e-38,-0.0497253,-0.299273,9.98575,-0.750817,-0.678841,-4.30493,4.01074,-0.243652
1008,-2.00665e-38,-0.0608947,-0.289468,10.0104,-0.6959,-0.738394,-7.16382,4.01074,-0.243408
1009,-2.00782e-38,-0.0549911,-0.311635,10.022,-0.806836,-0.829888,4.27271,4.01025,-0.243408
1010,-2.00898e-38,-0.0537016,-0.310493,9.97412,-0.765763,-0.702778,-4.34424,4.01074,-0.242676
1011,-2.01015e-38,-0.0392197,-0.296094,9.98231,-0.671336,-0.773486,-6.95215,4.00928,-0.242432
1012,-2.01132e-38,-0.0485978,-0.292196,10.0191,-0.720234,-0.804966,-7.24365,4.01147,-0.24707
1013,-2.01249e-38,-0.0569155,-0.294936,10.0177,-0.722104,-0.737139,2.96094,4.0105,-0.244385
1014,-2.01365e-38,-0.0585451,-0.288418,9.99112,-0.68714,-0.705839,-7.55591,4.00952,-0.244873
1015,-2.01482e-38,-0.064067,-0.305437,10.0211,-0.789905,-0.70881,-3.43799,4.00952,-0.242188
1016,-2.01599e-38,-0.0523306,-0.297146,9.99909,-0.719389,-0.722693,4.45752,4.00952,-0.24292
1017,-2.01716e-38,-0.0422315,-0.296359,10.0022,-0.674781,-0.722501,2.67212,4.01074,-0.243164
1018,-2.01833e-38,-0.0619939,-0.297355,10.0114,-0.803595,-0.698859,0.167236,4.0105,-0.241455
1019,-2.01949e-38,-0.0470466,-0.284581,10.0102,-0.723179,-0.712831,0.755859,4.01172,-0.246582
1020,-2.02066e-38,-0.0495636,-0.292555,9.99464,-0.835242,-0.775458,1.12622,4.00977,-0.241455
1021,-2.02183e-38,-0.0647188,-0.302467,9.99118,-0.732016,-0.670363,-1.67896,4.00854,-0.24585
1022,-2.023e-38,-0.0714337,-0.290818,10.038,-0.851468,-0.793145,-4.13525,4.01123,-0.243652
1023,-2.02416e-38,-0.0550725,-0.285645,9.98559,-0.743773,-0.867593,5.50415,4.01099,-0.243896
1024,-2.02533e-38,-0.0683737,-0.286249,9.98496,-0.723999,-0.783732,-5.1438,4.01025,-0.248047
1025,-2.0265e-38,-0.05017,-0.284636,10.0246,-0.77218,-0.721463,-0.266113,4.01099,-0.239502
1026,-2.02767e-38,-0.0419241,-0.291602,9.96939,-0.853582,-0.716597,4.01196,4.00928,-0.241943
1027,-2.02883e-38,-0.0547565,-0.288892,10.0119,-0.741109,-0.90376,-6.06226,4.0105,-0.243408
1028,-2.03e-38,-0.0400329,-0.299756,10.0131,-0.701868,-0.811344,0.994629,4.00977,-0.245361
1029,-2.03117e-38,-0.0449254,-0.275956,10.0076,-0.849048,-0.750817,6.60474,4.01196,-0.246094
1030,-2.03234e-38,-0.0418173,-0.292466,10.0146,-0.676357,-0.738343,-6.19312,4.01025,-0.240479
1031,-2.03351e-38,-0.0521902,-0.289729,10.005,-0.668467,-0.838981,6.63184,4.01123,-0.243164
1032,-2.03467e-38,-0.0531498,-0.287776,10.0277,-0.656839,-0.704712,-5.66895,4.0105,-0.244385
1033,-2.03584e-38,-0.056677,-0.295959,10.0178,-0.849611,-0.722872,-6.92749,4.01025,-0.243408
1034,-2.03701e-38,-0.0704409,-0.289391,10.0016,-0.724511,-0.678201,4.76904,4.01172,-0.243652
1035,-2.03818e-38,-0.0657864,-0.305452,10.016,-0.730556,-0.730454,1.62231,4.01123,-0.241943
1036,-2.03934e-38,-0.0490028,-0.30973,9.99926,-0.836164,-0.648309,-6.08667,4.00928,-0.242188
1037,-2.04051e-38,-0.0415951,-0.304018,9.97923,-0.775701,-0.814379,-1.91943,4.01172,-0.243408
1038,-2.04168e-38,-0.0327055,-0.311735,10.0147,-0.788316,-0.727585,-1.52417,4.01025,-0.24585
1039,-2.04285e-38,-0.0466573,-0.297407,10.005,-0.793939,-0.678803,4.02344,4.01025,-0.238525
1040,-2.04401e-38,-0.043615,-0.275585,10.0078,-0.65835,-0.783757,-5.77393,4.0105,-0.241943
1041,-2.04518e-38,-0.0469541,-0.290406,10.0045,-0.735756,-0.750638,-7.50366,4.00952,-0.243164
1042,-2.04635e-38,-0.0620054,-0.293857,9.99815,-0.742441,-0.702406,-6.82227,4.01001,-0.241943
1043,-2.04752e-38,-0.0679659,-0.278232,10.0233,-0.610349,-0.763829,-5.7749,4.01147,-0.245605
1044,-2.04869e-38,-0.0543636,-0.305565,10.0111,-0.745349,-0.689586,-1.09155,4.01025,-0.240479
1045,-2.04985e-38,-0.0541479,-0.284915,9.99737,-0.75001,-0.845936,5.49341,4.00977,-0.240967
1046,-2.05102e-38,-0.0625405,-0.298257,10.0207,-0.743863,-0.747039,-7.33569,4.01172,-0.243652
1047,-2.05219e-38,-0.0707851,-0.283428,9.98276,-0.758732,-0.720285,-5.06519,4.01025,-0.23999
1048,-2.05336e-38,-0.0409678,-0.283802,10.0508,-0.729826,-0.815404,-6.46899,4.01074,-0.241699
1049,-2.05452e-38,-0.0588131,-0.284509,10.0303,-0.707081,-0.873702,2.23877,4.01123,-0.24292
1050,-2.05569e-38,-0.0641931,-0.282323,10.0071,-0.816902,-0.83765,-1.89087,4.00977,-0.244873
1051,-2.05686e-38,-0.0584694,-0.285158,10.0027,-0.755786,-0.642213,1.88696,4.00952,-0.243164
1052,-2.05803e-38,-0.0470944,-0.286485,10.0202,-0.658017,-0.749434,3.25073,4.00977,-0.241943
1053,-2.05919e-38,-0.0475703,-0.284328,10.0152,-0.714624,-0.667008,-0.89502,4.0105,-0.245605
1054,-2.06036e-38,-0.042673,-0.304703,10.0308,-0.677458,-0.764521,-1.96948,4.00977,-0.240479
1055,-2.06153e-38,-0.0548362,-0.317276,10.0025,-0.800291,-0.857078,-4.00244,4.01001,-0.243652
1056,-2.0627e-38,-0.0477833,-0.291914,9.99256,-0.717506,-0.750062,4.62573,4.01099,-0.245361
1057,-2.06387e-38,-0.0241881,-0.291414,10.0185,-0.653176,-0.759347,4.32422,4.01074,-0.24292
1058,-2.06503e-38,-0.0528025,-0.298109,9.98514,-0.738318,-0.731069,-3.54468,4.01099,-0.245605
1059,-2.0662e-38,-0.0527625,-0.301211,10.0091,-0.729609,-0.759321,-0.293457,4.01172,-0.243408
1060,-2.06737e-38,-0.0676125,-0.29435,10.0449,-0.751253,-0.811549,-0.606445,4.01025,-0.245605
1061,-2.06854e-38,-0.0496103,-0.294697,10.0212,-0.649756,-0.758617,-5.91675,4.00977,-0.240479
1062,-2.0697e-38,-0.0711779,-0.291482,10.02,-0.772794,-0.699845,-3.59473,4.00903,-0.243408
1063,-2.07087e-38,-0.0648852,-0.303978,10.0087,-0.684297,-0.6396,5.97729,4.0105,-0.247803
1064,-2.07204e-38,-0.066025,-0.292353,10.0124,-0.766263,-0.729148,-6.42896,4.01025,-0.242432
1065,-2.07321e-38,-0.0410313,-0.298059,10.0078,-0.822998,-0.76365,-3.59644,4.0105,-0.246094
1066,-2.07437e-38,-0.047268,-0.288934,10.0005,-0.679328,-0.694517,1.78027,4.01099,-0.240479
1067,-2.07554e-38,-0.0359483,-0.289391,9.98484,-0.786524,-0.642597,5.76636,4.01123,-0.243164
1068,-2.07671e-38,-0.0433496,-0.291699,10.0169,-0.861663,-0.642405,-5.4707,4.00952,-0.243896
1069,-2.07788e-38,-0.0717601,-0.287184,9.99061,-0.610054,-0.79084,-6.86401,4.01196,-0.244873
1070,-2.07905e-38,-0.0614001,-0.28392,9.98661,-0.691905,-0.765238,1.77979,4.01123,-0.246582
1071,-2.08021e-38,-0.0482633,-0.309922,10.0228,-0.729506,-0.728738,5.68848,4.01074,-0.239014
1072,-2.08138e-38,-0.0404003,-0.28879,9.98999,-0.817824,-0.78076,4.56299,4.00903,-0.244629
1073,-2.08255e-38,-0.0662651,-0.306346,9.99382,-0.816761,-0.739637,7.53784,4.0105,-0.241455
1074,-2.08372e-38,-0.0610678,-0.287395,10.0166,-0.801085,-0.763945,7.53809,4.01025,-0.24292
1075,-2.08488e-38,-0.0491703,-0.282895,10.0294,-0.813419,-0.687192,-3.67676,4.01147,-0.242188
1076,-2.08605e-38,-0.0440891,-0.293745,10.0054,-0.793004,-0.673846,-6.2998,4.01172,-0.241943
1077,-2.08722e-38,-0.0531273,-0.300276,9.98504,-0.796231,-0.711909,1.72827,4.0105,-0.245605
1078,-2.08839e-38,-0.0466561,-0.306343,10.0098,-0.712191,-0.601999,-0.1604,4.01025,-0.240479
1079,-2.08955e-38,-0.0239955,-0.300184,9.99951,-0.697373,-0.747193,-5.05225,4.0105,-0.246582
1080,-2.09072e-38,-0.0402677,-0.27739,10.0025,-0.748742,-0.82643,3.56445,4.01001,-0.244385
1081,-2.09189e-38,-0.0521241,-0.302813,10.0021,-0.689292,-0.772769,-1.62939,4.0105,-0.243408
1082,-2.09306e-38,-0.0496672,-0.282119,10.0012,-0.707606,-0.810934,-0.94751,4.0105,-0.24707
1083,-2.09423e-38,-0.0461993,-0.269686,10.0177,-0.733374,-0.732452,1.57031,4.01099,-0.239502
1084,-2.09539e-38,-0.0414778,-0.298069,9.98944,-0.769183,-0.762882,-5.56372,4.01025,-0.244141
1085,-2.09656e-38,-0.0447893,-0.280489,10.0258,-0.788265,-0.772,6.0564,4.01025,-0.24292
1086,-2.09773e-38,-0.0570893,-0.284474,9.97097,-0.735654,-0.722667,-5.66968,4.01147,-0.23999
1087,-2.0989e-38,-0.0373896,-0.301329,9.98368,-0.715111,-0.70963,-5.51001,4.00952,-0.243896
1088,-2.10006e-38,-0.053479,-0.296745,10.025,-0.811318,-0.742903,1.98901,4.01147,-0.23999
1089,-2.10123e-38,-0.041466,-0.268857,9.989,-0.681172,-0.691674,0.914795,4.0105,-0.245605
1090,-2.1024e-38,-0.0500681,-0.310951,10.0176,-0.716366,-0.763855,-6.1416,4.01099,-0.241943
1091,-2.10357e-38,-0.0415949,-0.28749,10.0239,-0.679418,-0.806439,1.89917,4.01001,-0.244629
1092,-2.10474e-38,-0.049251,-0.290107,9.99849,-0.803134,-0.740892,3.3418,4.01001,-0.245361
1093,-2.1059e-38,-0.0353783,-0.28596,9.9851,-0.718492,-0.73071,-7.37451,4.01123,-0.241943
1094,-2.10707e-38,-0.0503496,-0.287266,10.0013,-0.725229,-0.683631,2.27759,4.01172,-0.245605
1095,-2.10824e-38,-0.0596887,-0.295638,10.0216,-0.731312,-0.786306,-5.05371,4.01147,-0.241455
1096,-2.10941e-38,-0.0388775,-0.300158,10.0026,-0.833346,-0.668211,0.940186,4.01123,-0.245605
1097,-2.11057e-38,-0.0508371,-0.286313,9.99652,-0.717583,-0.764841,4.12891,4.01001,-0.243896
1098,-2.11174e-38,-0.0591435,-0.293711,9.98159,-0.705326,-0.674205,3.4856,4.01025,-0.24292
1099,-2.11291e-38,-0.0524783,-0.296145,10.0069,-0.823049,-0.708246,-3.96484,4.01123,-0.241699
1100,-2.11408e-38,-0.0276935,-0.309008,10.0123,-0.723141,-0.627011,1.39868,4.01172,-0.243408
1101,-2.11524e-38,-0.0597632,-0.293793,10.0659,-0.793811,-0.79084,1.49097,4.01147,-0.24707
1102,-2.11641e-38,-0.0593783,-0.299917,10.0373,-0.730351,-0.743338,2.82861,4.01123,-0.23999
1103,-2.11758e-38,-0.0763801,-0.274213,9.97769,-0.610144,-0.642136,6.76538,4.00952,-0.244629
1104,-2.11875e-38,-0.0447581,-0.314234,9.99908,-0.772871,-0.832501,-0.266602,4.01123,-0.244873
1105,-2.11992e-38,-0.0548392,-0.291687,9.97922,-0.759885,-0.708195,4.74438,4.01074,-0.244385
1106,-2.12108e-38,-0.0384656,-0.300286,10.0195,-0.812881,-0.633914,5.31958,4.01196,-0.244629
1107,-2.12225e-38,-0.0505512,-0.304576,10.0109,-0.753148,-0.736166,-2.20874,4.01221,-0.240967
1108,-2.12342e-38,-0.0626848,-0.318466,10.0195,-0.766442,-0.683119,1.96411,4.01074,-0.245117
1109,-2.12459e-38,-0.0305293,-0.287507,10.0602,-0.716609,-0.785076,1.21631,4.01074,-0.243408
1110,-2.12575e-38,-0.0472859,-0.30823,10.0144,-0.667801,-0.794694,1.04419,4.01172,-0.242432
1111,-2.12692e-38,-0.0728223,-0.287406,10.005,-0.648437,-0.669415,-6.53223,4.00903,-0.24585
1112,-2.12809e-38,-0.0635116,-0.288979,10.0321,-0.603792,-0.743773,6.36865,4.01221,-0.241943
1113,-2.12926e-38,-0.0605486,-0.274978,10.0172,-0.607301,-0.647489,1.02051,4.01025,-0.245117
1114,-2.13042e-38,-0.0641653,-0.271433,10.0145,-0.698359,-0.751509,5.08545,4.0105,-0.238525
1115,-2.13159e-38,-0.05011,-0.283933,10.0247,-0.724358,-0.723666,-5.35474,4.01123,-0.244141
1116,-2.13276e-38,-0.054317,-0.289265,9.99112,-0.692366,-0.865159,5.97681,4.01074,-0.241455
1117,-2.13393e-38,-0.0553313,-0.308076,10.0166,-0.699666,-0.858115,-4.25317,4.01099,-0.243408
1118,-2.1351e-38,-0.0747647,-0.284325,10.0108,-0.748064,-0.756004,-6.04663,4.00879,-0.244629
1119,-2.13626e-38,-0.0413706,-0.309539,10.0137,-0.737331,-0.61884,3.47046,4.01196,-0.238525
1120,-2.13743e-38,-0.0613275,-0.289209,9.96106,-0.741366,-0.799305,-4.85669,4.01123,-0.245605
1121,-2.1386e-38,-0.0290599,-0.284837,10.0034,-0.753417,-0.789098,-5.75952,4.00977,-0.241455
1122,-2.13977e-38,-0.0662418,-0.293092,10.0116,-0.801533,-0.822025,-5.1189,4.01099,-0.24292
1123,-2.14093e-38,-0.0592826,-0.276685,10.0135,-0.822768,-0.736396,-0.869141,4.0105,-0.244385
1124,-2.1421e-38,-0.0566018,-0.28665,10.012,-0.693505,-0.636155,0.769287,4.01172,-0.239502
1125,-2.14327e-38,-0.0584058,-0.296126,10.0073,-0.733271,-0.693134,6.00244,4.01123,-0.243652
1126,-2.14444e-38,-0.0851939,-0.276634,10.0165,-0.788009,-0.721976,-2.573,4.01001,-0.240479
1127,-2.1456e-38,-0.048783,-0.296452,10.0123,-0.707913,-0.642034,5.76758,4.0105,-0.245117
1128,-2.14677e-38,-0.0605777,-0.289927,10.0387,-0.695567,-0.726919,-3.72729,4.01025,-0.241455
1129,-2.14794e-38,-0.0691834,-0.2958,10.0315,-0.753276,-0.751099,-3.25513,4.01025,-0.240967
1130,-2.14911e-38,-0.0482379,-0.304624,10.0099,-0.813815,-0.751137,-3.55762,4.01074,-0.244629
1131,-2.15028e-38,-0.0504678,-0.295339,10.0229,-0.830337,-0.759949,-4.13428,4.0105,-0.240479
1132,-2.15144e-38,-0.07582,-0.291343,9.99997,-0.657069,-0.757836,-6.74438,4.01074,-0.244629
1133,-2.15261e-38,-0.0545119,-0.275907,10.0023,-0.789162,-0.664113,6.10889,4.01001,-0.238037
1134,-2.15378e-38,-0.0500561,-0.290758,9.99816,-0.731837,-0.7355,-2.44336,4.01099,-0.246338
1135,-2.15495e-38,-0.0353593,-0.286743,10.0458,-0.726407,-0.787779,-7.40015,4.01074,-0.245361
1136,-2.15611e-38,-0.0718001,-0.293585,10.0206,-0.742582,-0.823318,2.89526,4.0105,-0.24292
1137,-2.15728e-38,-0.0576439,-0.272193,9.99847,-0.724768,-0.727329,5.87207,4.01074,-0.241211
1138,-2.15845e-38,-0.0332559,-0.285889,9.99067,-0.673206,-0.728405,-7.00732,4.01099,-0.244385
1139,-2.15962e-38,-0.0549471,-0.287381,10.0038,-0.70799,-0.741007,-3.70215,4.01099,-0.246582
1140,-2.16078e-38,-0.0563617,-0.282254,9.99387,-0.662346,-0.739393,3.61548,4.01147,-0.239502
1141,-2.16195e-38,-0.0811133,-0.299625,9.99933,-0.588654,-0.832629,-7.05884,4.01025,-0.241943
1142,-2.16312e-38,-0.064595,-0.310424,10.0224,-0.701804,-0.748883,-4.97339,4.0105,-0.243652
1143,-2.16429e-38,-0.0416486,-0.293953,10.0062,-0.70662,-0.680058,7.22314,4.0105,-0.23999
1144,-2.16546e-38,-0.0482091,-0.296249,10.0141,-0.821218,-0.801828,-3.37329,4.01025,-0.24707
1145,-2.16662e-38,-0.0487973,-0.278778,10.0003,-0.726407,-0.751663,7.76099,4.0105,-0.238525
1146,-2.16779e-38,-0.0543707,-0.295432,10.0023,-0.746873,-0.782528,4.50757,4.01099,-0.242676
1147,-2.16896e-38,-0.0397462,-0.278599,10.0241,-0.691572,-0.697975,-3.77954,4.00977,-0.243408
1148,-2.17013e-38,-0.0536219,-0.275816,9.9981,-0.7261,-0.673539,-2.49438,4.01025,-0.241943
1149,-2.17129e-38,-0.0614439,-0.311837,10.0216,-0.681057,-0.714842,-2.71899,4.01123,-0.244629
1150,-2.17246e-38,-0.0620803,-0.275328,10.0031,-0.75165,-0.733771,0.770752,4.0105,-0.239502
1151,-2.17363e-38,-0.0146561,-0.271231,10.0088,-0.741071,-0.704699,-6.92773,4.0105,-0.245117
1152,-2.1748e-38,-0.0563352,-0.297686,10.0202,-0.742467,-0.772717,3.14209,4.01245,-0.247314
1153,-2.17596e-38,-0.0625471,-0.310161,9.98748,-0.809448,-0.711858,7.76025,4.01074,-0.243896
1154,-2.17713e-38,-0.0546662,-0.276661,10.0161,-0.780837,-0.669953,-7.68774,4.01001,-0.245605
1155,-2.1783e-38,-0.0486797,-0.290415,9.99336,-0.785653,-0.859934,-2.7583,4.01123,-0.23999
1156,-2.17947e-38,-0.0781608,-0.265518,10.0093,-0.754685,-0.679046,-3.20312,4.01025,-0.243652
1157,-2.18064e-38,-0.0407451,-0.308371,9.97916,-0.788112,-0.673923,-0.159912,4.01001,-0.240967
1158,-2.1818e-38,-0.0419079,-0.287481,10.0142,-0.877864,-0.708221,-0.291504,4.01025,-0.241211
1159,-2.18297e-38,-0.0587121,-0.279756,9.99304,-0.809333,-0.701625,2.34399,4.01074,-0.245605
1160,-2.18414e-38,-0.0657814,-0.288338,10.0038,-0.80795,-0.642379,5.85864,4.01099,-0.240967
1161,-2.18531e-38,-0.0372546,-0.284499,9.97968,-0.754531,-0.787574,0.362305,4.01172,-0.244141
1162,-2.18647e-38,-0.0390832,-0.303448,10.0292,-0.675639,-0.808782,-4.82861,4.00977,-0.239502
1163,-2.18764e-38,-0.0573146,-0.296279,10.023,-0.622311,-0.793106,1.9104,4.01172,-0.244141
1164,-2.18881e-38,-0.0537261,-0.278022,9.98287,-0.789392,-0.731837,-1.05273,4.01099,-0.240967
1165,-2.18998e-38,-0.0451635,-0.310353,10.0108,-0.790494,-0.690573,-4.22632,4.0105,-0.243408
1166,-2.19114e-38,-0.049387,-0.292758,10.0328,-0.742083,-0.891926,-2.6521,4.01025,-0.244141
1167,-2.19231e-38,-0.0568476,-0.298716,10.0235,-0.767492,-0.727713,5.06104,4.00928,-0.240967
1168,-2.19348e-38,-0.0614773,-0.294572,10.0006,-0.596517,-0.583889,2.95947,4.01147,-0.245605
1169,-2.19465e-38,-0.0274886,-0.278462,10.0112,-0.715354,-0.730134,1.32031,4.01147,-0.240967
1170,-2.19582e-38,-0.055783,-0.314497,9.97515,-0.690688,-0.800906,-3.40112,4.01147,-0.243408
1171,-2.19698e-38,-0.056138,-0.306496,10.0138,-0.759424,-0.820539,4.32373,4.01123,-0.243408
1172,-2.19815e-38,-0.0512196,-0.297411,9.99818,-0.70005,-0.764034,1.49316,4.00977,-0.24292
1173,-2.19932e-38,-0.0515276,-0.305234,10.0103,-0.752277,-0.706376,-0.57959,4.01001,-0.246582
1174,-2.20049e-38,-0.0445392,-0.319766,10.0095,-0.720183,-0.694107,2.25073,4.01196,-0.241455
1175,-2.20165e-38,-0.0701346,-0.296207,10.0009,-0.76999,-0.755287,-6.54858,4.01147,-0.249023
1176,-2.20282e-38,-0.0548648,-0.286592,10.0085,-0.708182,-0.696041,2.44946,4.0105,-0.239258
1177,-2.20399e-38,-0.0338805,-0.289243,9.98585,-0.697155,-0.678662,6.47583,4.0105,-0.242188
1178,-2.20516e-38,-0.0466329,-0.29353,10.0238,-0.846205,-0.776227,-2.93994,4.00977,-0.245117
1179,-2.20633e-38,-0.0411216,-0.296377,10.0158,-0.807015,-0.757784,2.72437,4.01099,-0.23999
1180,-2.20749e-38,-0.0260191,-0.279496,10.0133,-0.774344,-0.69348,7.98389,4.01025,-0.245605
1181,-2.20866e-38,-0.063532,-0.30333,10.0228,-0.819924,-0.739419,-5.66821,4.01001,-0.243408
1182,-2.20983e-38,-0.0567225,-0.29851,10.0157,-0.794387,-0.628023,-6.92578,4.00903,-0.243408
1183,-2.211e-38,-0.0529811,-0.291005,10.0168,-0.738574,-0.827045,-6.14185,4.01099,-0.245361
1184,-2.21216e-38,-0.0622135,-0.276358,9.99598,-0.727841,-0.786908,3.1438,4.01099,-0.238525
1185,-2.21333e-38,-0.0359294,-0.279872,9.99679,-0.675114,-0.77939,7.22266,4.01099,-0.24707
1186,-2.2145e-38,-0.0504398,-0.290406,10.0061,-0.671029,-0.755197,-7.19067,4.01099,-0.241455
1187,-2.21567e-38,-0.0405541,-0.30059,10.0094,-0.723589,-0.776355,5.42432,4.01221,-0.242188
1188,-2.21683e-38,-0.058606,-0.302205,10.0111,-0.714996,-0.76607,3.39355,4.0105,-0.241455
1189,-2.218e-38,-0.0512784,-0.285645,10.0095,-0.712972,-0.685104,-1.55054,4.01025,-0.24292
1190,-2.21917e-38,-0.0507582,-0.304706,10.044,-0.731914,-0.836497,-4.38574,4.01196,-0.244141
1191,-2.22034e-38,-0.0651334,-0.28185,9.97274,-0.653483,-0.72861,1.38672,4.01099,-0.241943
1192,-2.22151e-38,-0.0673278,-0.28551,9.97447,-0.689907,-0.673949,1.54443,4.0105,-0.244629
1193,-2.22267e-38,-0.0547418,-0.284464,10.0333,-0.753853,-0.730006,-6.33862,4.01123,-0.241455
1194,-2.22384e-38,-0.0473394,-0.285369,9.99913,-0.795553,-0.588846,0.113281,4.01196,-0.243896
1195,-2.22501e-38,-0.0376333,-0.288827,9.99968,-0.714061,-0.715188,4.2998,4.00952,-0.239746
1196,-2.22618e-38,-0.0633426,-0.29829,10.0139,-0.682018,-0.662756,5.71533,4.0105,-0.242432
1197,-2.22734e-38,-0.070252,-0.29276,10.0101,-0.687614,-0.680493,-3.85889,4.0105,-0.243652
1198,-2.22851e-38,-0.0539539,-0.298704,9.98174,-0.724691,-0.800509,5.34839,4.01025,-0.239014
1199,-2.22968e-38,-0.0567107,-0.294376,10.0276,-0.76511,-0.776944,5.32251,4.00977,-0.246582
1200,-2.23085e-38,-0.0669141,-0.276871,10.0055,-0.595826,-0.685783,0.914062,4.01147,-0.239502
1201,-2.23201e-38,-0.0433583,-0.276729,10.0016,-0.769721,-0.693877,-1.76025,4.01025,-0.241455
1202,-2.23318e-38,-0.0654203,-0.314499,10.0111,-0.640317,-0.776022,5.39917,4.01123,-0.242188
1203,-2.23435e-38,-0.0465491,-0.284038,9.99934,-0.607173,-0.82141,-2.86255,4.01074,-0.245361
1204,-2.23552e-38,-0.0527675,-0.279041,9.99729,-0.720528,-0.749882,4.28467,4.01123,-0.244629
1205,-2.23669e-38,-0.0443815,-0.286316,10.0011,-0.770194,-0.653189,4.2207,4.01001,-0.24292
1206,-2.23785e-38,-0.0534817,-0.296675,9.98015,-0.697219,-0.74581,4.20532,4.01172,-0.244385
1207,-2.23902e-38,-0.04312,-0.289307,10.0121,-0.826174,-0.720336,3.45972,4.01025,-0.241699
1208,-2.24019e-38,-0.0569481,-0.295843,9.97916,-0.770182,-0.678047,-1.70825,4.0105,-0.23999
1209,-2.24136e-38,-0.050439,-0.29108,9.9944,-0.671311,-0.723974,7.31421,4.01099,-0.243164
1210,-2.24252e-38,-0.0475109,-0.328958,9.97912,-0.659349,-0.765981,2.95972,4.01147,-0.242432
1211,-2.24369e-38,-0.0465985,-0.295923,10.0105,-0.772346,-0.764073,3.99585,4.01147,-0.244141
1212,-2.24486e-38,-0.043078,-0.313793,9.97967,-0.726074,-0.618776,-3.96558,4.01196,-0.242676
1213,-2.24603e-38,-0.0551295,-0.286349,10.0505,-0.73614,-0.779044,5.82007,4.0105,-0.244141
1214,-2.24719e-38,-0.0552636,-0.271518,9.98427,-0.684464,-0.747654,-5.604,4.01123,-0.245117
1215,-2.24836e-38,-0.0560744,-0.290101,10.0039,-0.615049,-0.72081,-5.49829,4.0105,-0.239014
1216,-2.24953e-38,-0.0485633,-0.281817,10.0029,-0.594596,-0.81954,2.14746,4.01074,-0.24707
1217,-2.2507e-38,-0.0568101,-0.279697,10.0005,-0.747641,-0.653073,-1.73291,4.00928,-0.23999
1218,-2.25187e-38,-0.0544219,-0.305348,10.0094,-0.654303,-0.730556,-3.67578,4.01099,-0.243896
1219,-2.25303e-38,-0.0370711,-0.295627,10.0208,-0.826174,-0.837803,-2.60083,4.01099,-0.245361
1220,-2.2542e-38,-0.0674682,-0.291881,9.99658,-0.731735,-0.81183,-6.08838,4.01025,-0.239014
1221,-2.25537e-38,-0.0663465,-0.280499,9.99666,-0.751624,-0.684848,-3.84644,4.01099,-0.244141
1222,-2.25654e-38,-0.0535169,-0.288452,10.0018,-0.68171,-0.631942,-3.57153,4.01123,-0.240479
1223,-2.2577e-38,-0.0477484,-0.314324,9.99549,-0.786037,-0.711551,-3.75244,4.00928,-0.243652
1224,-2.25887e-38,-0.0324482,-0.307054,10.0401,-0.73947,-0.703021,2.28027,4.00952,-0.243896
1225,-2.26004e-38,-0.054015,-0.301859,10.034,-0.685066,-0.732273,-0.844482,4.01221,-0.245361
1226,-2.26121e-38,-0.0665469,-0.277392,9.98156,-0.763291,-0.715598,4.66528,4.01099,-0.249023
1227,-2.26237e-38,-0.0514299,-0.283556,10.0166,-0.765827,-0.805888,7.18433,4.01001,-0.239502
1228,-2.26354e-38,-0.056398,-0.296394,9.98174,-0.674384,-0.802097,2.15063,4.0083,-0.249512
1229,-2.26471e-38,-0.05617,-0.286819,10.0022,-0.765007,-0.816492,-3.41357,4.01074,-0.242432
1230,-2.26588e-38,-0.0444515,-0.298348,10.0478,-0.686782,-0.741135,7.55078,4.0105,-0.242432
1231,-2.26705e-38,-0.0521999,-0.309783,9.99479,-0.675857,-0.745887,-4.06885,4.0105,-0.244629
1232,-2.26821e-38,-0.056017,-0.308242,9.99565,-0.650909,-0.816479,2.21387,4.01025,-0.24292
1233,-2.26938e-38,-0.0380571,-0.303135,10.049,-0.594353,-0.721118,1.97656,4.01123,-0.242676
1234,-2.27055e-38,-0.0616147,-0.28005,10.0068,-0.640241,-0.694799,-7.11084,4.01001,-0.240967
1235,-2.27172e-38,-0.0209271,-0.298108,9.98703,-0.677304,-0.743901,-4.96069,4.0105,-0.24707
1236,-2.27288e-38,-0.0175404,-0.287389,10.0017,-0.717852,-0.667725,4.63867,4.01099,-0.243896
1237,-2.27405e-38,-0.0496015,-0.289149,10.0178,-0.704379,-0.755607,-0.501709,4.01074,-0.23999
1238,-2.27522e-38,-0.054197,-0.268966,9.98451,-0.741033,-0.588807,-0.0820312,4.01074,-0.243652
1239,-2.27639e-38,-0.0678604,-0.276959,10.0053,-0.610067,-0.704788,-4.7771,4.0105,-0.243408
1240,-2.27755e-38,-0.0666417,-0.290947,10.0069,-0.777174,-0.76593,-5.43384,4.01147,-0.244629
1241,-2.27872e-38,-0.0530209,-0.293011,10.0129,-0.657172,-0.782605,-3.38672,4.01074,-0.242432
1242,-2.27989e-38,-0.0590704,-0.30597,9.9855,-0.689446,-0.794618,7.28833,4.01074,-0.243408
1243,-2.28106e-38,-0.0491502,-0.28032,10.0038,-0.688165,-0.729096,-0.552734,4.00952,-0.243896
1244,-2.28223e-38,-0.0473375,-0.311999,9.99315,-0.688754,-0.732708,4.58813,4.00977,-0.239502
1245,-2.28339e-38,-0.0561623,-0.291135,10.0144,-0.670952,-0.776098,-0.185059,4.00879,-0.244141
1246,-2.28456e-38,-0.0591277,-0.285846,9.99536,-0.649692,-0.813675,-5.40845,4.01196,-0.238525
1247,-2.28573e-38,-0.0297352,-0.284229,9.98543,-0.663806,-0.754096,6.55322,4.01123,-0.244141
1248,-2.2869e-38,-0.0449184,-0.279585,9.99538,-0.678226,-0.755146,-1.00073,4.01099,-0.241943
1249,-2.28806e-38,-0.0471623,-0.282874,9.9935,-0.605508,-0.724844,2.40845,4.01172,-0.242432
1250,-2.28923e-38,-0.0431381,-0.284405,10.0229,-0.624232,-0.834038,4.76904,4.01172,-0.246582
1251,-2.2904e-38,-0.0746372,-0.303351,10.0231,-0.730018,-0.655353,-2.94238,4.01172,-0.240967
1252,-2.29157e-38,-0.063037,-0.306018,9.9863,-0.627177,-0.6573,3.61792,4.00952,-0.245605
1253,-2.29274e-38,-0.0423701,-0.287015,9.9541,-0.702304,-0.908166,4.92725,4.01099,-0.244385
1254,-2.2939e-38,-0.0528721,-0.307335,10.0172,-0.669441,-0.713779,4.06152,4.01123,-0.244873
1255,-2.29507e-38,-0.0605517,-0.292769,9.99451,-0.773614,-0.678073,-4.3833,4.0105,-0.243896
1256,-2.29624e-38,-0.0630129,-0.28893,10.005,-0.573849,-0.812624,-3.28296,4.01147,-0.243408
1257,-2.29741e-38,-0.0300076,-0.279407,9.98107,-0.509044,-0.664728,7.94409,4.0105,-0.245605
1258,-2.29857e-38,-0.0302529,-0.275203,10.0174,-0.67984,-0.658145,-2.86279,4.01099,-0.239502
1259,-2.29974e-38,-0.0578617,-0.291425,10.029,-0.765084,-0.71757,-2.9939,4.01123,-0.244141
1260,-2.30091e-38,-0.0598452,-0.293855,10.0196,-0.66524,-0.742083,3.72339,4.00928,-0.240723
1261,-2.30208e-38,-0.0352003,-0.289291,9.98458,-0.687473,-0.750254,-7.00586,4.01001,-0.241943
1262,-2.30324e-38,-0.0470677,-0.28602,9.99035,-0.747001,-0.909702,-3.20386,4.01099,-0.242188
1263,-2.30441e-38,-0.0595114,-0.262319,10.0051,-0.699333,-0.744158,7.13062,4.01123,-0.239502
1264,-2.30558e-38,-0.0557977,-0.283026,9.99959,-0.75863,-0.731197,-5.98364,4.0105,-0.24292
1265,-2.30675e-38,-0.0558737,-0.313368,9.965,-0.777712,-0.724332,2.62109,4.00977,-0.238525
1266,-2.30792e-38,-0.06617,-0.274743,10.0026,-0.783424,-0.755735,-1.49927,4.01123,-0.241943
1267,-2.30908e-38,-0.0522837,-0.273617,9.97553,-0.690355,-0.748294,-0.856934,4.01147,-0.239746
1268,-2.31025e-38,-0.0611384,-0.286908,10.0024,-0.769247,-0.782131,5.70142,4.01074,-0.240967
1269,-2.31142e-38,-0.0509601,-0.272931,10.0114,-0.80827,-0.641265,-2.83667,4.01099,-0.244141
1270,-2.31259e-38,-0.0533185,-0.303409,9.98813,-0.784961,-0.680686,-5.48413,4.00977,-0.238525
1271,-2.31375e-38,-0.0458578,-0.30821,9.9887,-0.720964,-0.731645,1.323,4.00928,-0.243652
1272,-2.31492e-38,-0.0402923,-0.281733,10.0021,-0.764636,-0.735718,-6.02246,4.01025,-0.242432
1273,-2.31609e-38,-0.0543366,-0.286727,9.99743,-0.799894,-0.838418,4.2981,4.01099,-0.240479
1274,-2.31726e-38,-0.0518457,-0.288473,9.99531,-0.857193,-0.821769,-0.633545,4.01074,-0.240234
1275,-2.31842e-38,-0.0531637,-0.308922,9.97356,-0.790391,-0.75425,2.33179,4.01025,-0.241455
1276,-2.31959e-38,-0.0475883,-0.310269,10.0067,-0.872152,-0.725971,-4.51489,4.01074,-0.245605
1277,-2.32076e-38,-0.0450721,-0.304182,10.03,-0.774254,-0.781759,1.88647,4.00977,-0.241943
1278,-2.32193e-38,-0.0737015,-0.300515,10.0021,-0.788317,-0.780991,-4.06934,4.01099,-0.246094
1279,-2.3231e-38,-0.0513072,-0.303066,10.0408,-0.712524,-0.833705,-6.6665,4.01123,-0.245361
1280,-2.32426e-38,-0.0313782,-0.305657,10.0366,-0.648283,-0.635861,-1.39404,4.01074,-0.241943
1281,-2.32543e-38,-0.0494109,-0.292912,10.0091,-0.709245,-0.82579,1.4668,4.00977,-0.244141
1282,-2.3266e-38,-0.0582803,-0.286,9.98722,-0.70028,-0.813649,7.31445,4.01099,-0.24292
1283,-2.32777e-38,-0.0793892,-0.295427,9.98607,-0.79116,-0.776585,5.45312,4.01025,-0.244629
1284,-2.32893e-38,-0.0698431,-0.288722,9.9865,-0.760551,-0.773614,-5.06445,4.01001,-0.243896
1285,-2.3301e-38,-0.0404603,-0.262237,10.0125,-0.68586,-0.710193,-5.43188,4.00977,-0.242676
1286,-2.33127e-38,-0.056098,-0.286826,9.94863,-0.706441,-0.833538,-6.88672,4.00928,-0.241699
1287,-2.33244e-38,-0.0557702,-0.305577,10.0166,-0.733015,-0.882679,6.03149,4.00928,-0.23999
1288,-2.3336e-38,-0.0625239,-0.281596,10.0589,-0.759398,-0.695593,-6.87573,4.01074,-0.244141
1289,-2.33477e-38,-0.0687353,-0.294567,9.95682,-0.600013,-0.782797,0.416748,4.0105,-0.23999
1290,-2.33594e-38,-0.0536337,-0.269829,9.97659,-0.728097,-0.852326,1.56909,4.01172,-0.245361
1291,-2.33711e-38,-0.0569361,-0.296494,10.0398,-0.678291,-0.73956,2.93506,4.01025,-0.24292
1292,-2.33828e-38,-0.0541147,-0.279331,10.0202,-0.551756,-0.736563,1.76685,4.01099,-0.23999
