timestamp_ms,acc_x,acc_y,acc_z,gyr_x,gyr_y,gyr_z,mag_x,mag_y,mag_z
0,-4.4555e-38,0,0,0,0,0,0,0,-0.591064
1,-4.45784e-38,-0.350349,-0.118581,9.89009,2.96378,0.455741,-5.92603,3.99585,-0.586426
2,-4.46017e-38,-0.351079,-0.10874,9.8791,2.92452,0.532763,5.93042,3.99463,-0.587891
3,-4.46251e-38,-0.344555,-0.137493,9.85178,2.94575,0.4655,1.26343,3.99414,-0.586914
4,-4.46484e-38,-0.347025,-0.101976,9.86817,2.8195,0.439502,-0.785645,3.99536,-0.585205
5,-4.46718e-38,-0.355042,-0.108892,9.8609,2.83425,0.474081,4.45679,3.99829,-0.592041
6,-4.46951e-38,-0.341081,-0.104494,9.89023,2.74567,0.360725,5.17212,3.99316,-0.584717
7,-4.47185e-38,-0.339865,-0.106089,9.87563,2.89504,0.496545,-2.93262,3.99268,-0.590576
8,-4.47418e-38,-0.337004,-0.116458,9.89222,2.88848,0.506611,-4.40454,3.99536,-0.587402
9,-4.47652e-38,-0.348764,-0.134177,9.87953,2.90638,0.416295,1.47314,3.99414,-0.587402
10,-4.47885e-38,-0.369421,-0.106114,9.87024,2.91619,0.404871,1.41846,3.99512,-0.589355
11,-4.48119e-38,-0.344452,-0.107326,9.88132,2.98843,0.430639,-5.60669,3.9917,-0.588379
12,-4.48352e-38,-0.372695,-0.121237,9.85947,2.76064,0.486914,5.40918,3.99243,-0.590576
13,-4.48586e-38,-0.369631,-0.091528,9.88128,3.0164,0.5145,-6.03027,3.99487,-0.586426
14,-4.4882e-38,-0.344781,-0.103813,9.85033,2.79983,0.411352,-2.24902,3.9917,-0.590576
15,-4.49053e-38,-0.356519,-0.113814,9.9127,2.95889,0.419036,1.47681,3.99097,-0.589355
16,-4.49287e-38,-0.3645,-0.117222,9.86152,2.83771,0.485351,2.67944,3.99365,-0.585205
17,-4.4952e-38,-0.343262,-0.120353,9.8763,2.8539,0.411429,5.19824,3.99316,-0.590576
18,-4.49754e-38,-0.369576,-0.11252,9.86526,2.84122,0.569161,0.631592,3.99536,-0.585205
19,-4.49987e-38,-0.35751,-0.112084,9.86168,2.85377,0.387121,1.78613,3.99512,-0.587891
20,-4.50221e-38,-0.360036,-0.118737,9.87279,2.92933,0.416014,7.13965,3.99268,-0.590088
21,-4.50454e-38,-0.353272,-0.105535,9.85809,2.95409,0.468638,1.34058,3.99414,-0.587402
22,-4.50688e-38,-0.337654,-0.106304,9.90214,2.95264,0.520853,2.62866,3.99268,-0.593262
23,-4.50921e-38,-0.344004,-0.123907,9.90057,2.94573,0.425824,1.15869,3.99292,-0.586426
24,-4.51155e-38,-0.340903,-0.106882,9.89678,2.94415,0.455857,6.16553,3.99561,-0.591553
25,-4.51388e-38,-0.352564,-0.0987382,9.89675,2.94924,0.468215,-5.81616,3.9917,-0.587891
26,-4.51622e-38,-0.351377,-0.0893282,9.86923,2.95444,0.548849,-1.35962,3.99341,-0.587891
27,-4.51856e-38,-0.355976,-0.107059,9.85854,2.96898,0.487938,-3.66724,3.99243,-0.590088
28,-4.52089e-38,-0.347592,-0.10252,9.87689,2.89687,0.49164,3.65161,3.99292,-0.586914
29,-4.52323e-38,-0.335654,-0.127775,9.86637,2.77817,0.334676,7.4812,3.99243,-0.588379
30,-4.52556e-38,-0.358205,-0.113978,9.89552,2.80324,0.45797,-4.03613,3.99438,-0.588379
31,-4.5279e-38,-0.340491,-0.11055,9.86262,2.92467,0.486914,-7.55127,3.99438,-0.590576
32,-4.53023e-38,-0.357676,-0.090785,9.90815,2.83269,0.471597,-5.56104,3.99707,-0.587891
33,-4.53257e-38,-0.341976,-0.111121,9.87014,2.87659,0.372393,0.947021,3.99463,-0.589355
34,-4.5349e-38,-0.342719,-0.119663,9.87586,3.02956,0.464758,5.98511,3.99341,-0.589355
35,-4.53724e-38,-0.347331,-0.129854,9.87063,2.83351,0.575129,4.78076,3.9917,-0.586426
36,-4.53957e-38,-0.351703,-0.114293,9.89609,2.81953,0.448544,4.30322,3.99609,-0.59375
37,-4.54191e-38,-0.350304,-0.0941723,9.86837,2.86721,0.466128,5.22144,3.99536,-0.587402
38,-4.54425e-38,-0.358437,-0.102774,9.85943,2.87221,0.450337,1.15991,3.99194,-0.587402
39,-4.54658e-38,-0.349979,-0.100426,9.86683,2.88515,0.43963,6.66553,3.99463,-0.590088
40,-4.54892e-38,-0.354536,-0.116449,9.85808,2.90177,0.472109,1.21045,3.99414,-0.588379
41,-4.55125e-38,-0.329598,-0.112131,9.87466,2.90634,0.392589,0.873291,3.99146,-0.588867
42,-4.55359e-38,-0.343308,-0.121919,9.90055,2.88364,0.457611,5.56323,3.99438,-0.586426
43,-4.55592e-38,-0.358752,-0.122766,9.91163,2.84756,0.453116,-5.47949,3.99487,-0.589355
44,-4.55826e-38,-0.363113,-0.132034,9.87712,2.85209,0.397328,-7.68286,3.99487,-0.585205
45,-4.56059e-38,-0.358157,-0.118523,9.89346,3.00796,0.433214,-3.2793,3.99731,-0.587402
46,-4.56293e-38,-0.347694,-0.115041,9.85326,2.86352,0.404526,1.86206,3.99707,-0.590088
47,-4.56526e-38,-0.357387,-0.0991953,9.87497,2.81922,0.381204,2.67798,3.99512,-0.586914
48,-4.5676e-38,-0.347158,-0.110199,9.86072,2.91642,0.440988,0.10791,3.99463,-0.591553
49,-4.56993e-38,-0.336678,-0.0990911,9.84597,2.95259,0.448749,1.89233,3.99414,-0.585205
50,-4.57227e-38,-0.344848,-0.0898543,9.89347,2.84008,0.519303,6.2229,3.99194,-0.588379
51,-4.57461e-38,-0.353347,-0.109115,9.90683,2.86467,0.534697,2.91528,3.99414,-0.589355
52,-4.57694e-38,-0.337729,-0.12641,9.85797,2.90522,0.453141,0.504883,3.9917,-0.585693
53,-4.57928e-38,-0.365574,-0.0914353,9.90111,2.85398,0.427053,2.78223,3.99536,-0.591064
54,-4.58161e-38,-0.322527,-0.120851,9.82884,2.95481,0.517408,2.12866,3.99365,-0.585693
55,-4.58395e-38,-0.367193,-0.103592,9.87601,2.90827,0.415156,0.0339355,3.99121,-0.587402
56,-4.58628e-38,-0.351605,-0.108557,9.88366,2.8585,0.544943,-0.962402,3.99072,-0.588379
57,-4.58862e-38,-0.346565,-0.0978376,9.8597,2.86644,0.355577,-3.06934,3.99683,-0.588867
58,-4.59095e-38,-0.352818,-0.100855,9.85989,2.88427,0.520404,-5.42749,3.99536,-0.590088
59,-4.59329e-38,-0.359516,-0.131844,9.83702,2.84907,0.397943,0.189941,3.99219,-0.585693
60,-4.59562e-38,-0.354293,-0.099256,9.87661,2.96537,0.382049,6.24951,3.9917,-0.593262
61,-4.59796e-38,-0.344383,-0.108896,9.91002,2.85168,0.540768,-0.497314,3.99609,-0.588379
62,-4.60029e-38,-0.360067,-0.123525,9.8812,2.87849,0.581738,-1.72607,3.99292,-0.585693
63,-4.60263e-38,-0.348248,-0.127905,9.909,2.97823,0.374826,-1.36035,3.99414,-0.587891
64,-4.60497e-38,-0.361456,-0.116375,9.89412,2.89142,0.388939,-0.627197,3.99463,-0.585205
65,-4.6073e-38,-0.355075,-0.131054,9.87825,2.84656,0.509365,-2.01782,3.99536,-0.590088
66,-4.60964e-38,-0.359128,-0.112368,9.86684,2.81979,0.407369,5.33228,3.99072,-0.584717
67,-4.61197e-38,-0.348651,-0.104905,9.86498,2.80947,0.381217,0.397461,3.99414,-0.588867
68,-4.61431e-38,-0.347791,-0.116662,9.88565,2.88821,0.378425,-1.54272,3.99316,-0.587891
69,-4.61664e-38,-0.35947,-0.10793,9.9038,2.79282,0.499529,6.43408,3.99097,-0.587891
70,-4.61898e-38,-0.352703,-0.105028,9.87275,2.81675,0.46705,1.70703,3.99536,-0.590576
71,-4.62131e-38,-0.35348,-0.105817,9.89124,2.94961,0.307115,-6.11011,3.99609,-0.586426
72,-4.62365e-38,-0.366471,-0.0851564,9.87969,2.92139,0.447391,-3.4624,3.99731,-0.592529
73,-4.62598e-38,-0.362359,-0.117684,9.87544,2.9034,0.428244,-7.47266,3.99487,-0.588379
74,-4.62832e-38,-0.357556,-0.115618,9.86824,2.87285,0.49634,-6.81812,3.99585,-0.588867
75,-4.63065e-38,-0.350927,-0.107623,9.87733,2.95623,0.483046,1.46802,3.99731,-0.587891
76,-4.63299e-38,-0.344491,-0.116894,9.85769,2.91185,0.45642,6.69019,3.99561,-0.586182
77,-4.63533e-38,-0.347328,-0.123316,9.86173,2.80624,0.507418,-0.543213,3.99072,-0.592041
78,-4.63766e-38,-0.3552,-0.107814,9.8705,2.77123,0.483802,6.00903,3.99487,-0.586182
79,-4.64e-38,-0.364956,-0.0995874,9.87765,2.86873,0.383022,-7.02368,3.99243,-0.588379
80,-4.64233e-38,-0.368997,-0.088254,9.87007,2.83924,0.393896,-3.5896,3.99365,-0.588379
81,-4.64467e-38,-0.353701,-0.111712,9.87666,2.90071,0.324532,3.54468,3.99414,-0.588867
82,-4.647e-38,-0.342419,-0.137062,9.92547,2.94174,0.436492,-6.31226,3.98999,-0.591553
83,-4.64934e-38,-0.349517,-0.108886,9.87328,2.81928,0.375018,6.21924,3.99463,-0.586426
84,-4.65167e-38,-0.33971,-0.120263,9.90692,2.99612,0.476681,-3.01074,3.99243,-0.591064
85,-4.65401e-38,-0.343572,-0.108446,9.859,2.86552,0.413388,4.59082,3.99658,-0.588867
86,-4.65634e-38,-0.366104,-0.0957053,9.87507,2.83821,0.438029,3.2832,3.99341,-0.586426
87,-4.65868e-38,-0.374671,-0.115353,9.87231,2.82059,0.494201,-5.4812,3.99634,-0.590088
88,-4.66102e-38,-0.331409,-0.11642,9.85994,2.92753,0.382625,-2.70044,3.99561,-0.585693
89,-4.66335e-38,-0.359941,-0.12536,9.87867,2.86721,0.411416,-0.129639,3.99585,-0.589355
90,-4.66569e-38,-0.338594,-0.11973,9.8806,2.91891,0.445777,-7.91455,3.9917,-0.584229
91,-4.66802e-38,-0.369901,-0.0987763,9.86695,2.84338,0.468945,-6.63501,3.99561,-0.589355
92,-4.67036e-38,-0.354741,-0.110324,9.89701,2.82241,0.509928,4.53687,3.9978,-0.587891
93,-4.67269e-38,-0.368265,-0.110276,9.87514,2.78437,0.443408,2.12964,3.99316,-0.586914
94,-4.67503e-38,-0.35101,-0.118513,9.89778,2.81088,0.327376,-6.83936,3.9917,-0.591064
95,-4.67736e-38,-0.353575,-0.11775,9.90709,2.84026,0.488284,4.74634,3.99756,-0.583252
96,-4.6797e-38,-0.345441,-0.131569,9.87677,2.88354,0.524541,-0.471191,3.99609,-0.591553
97,-4.68203e-38,-0.346571,-0.135595,9.89731,2.8731,0.469842,-7.9978,3.99512,-0.587891
98,-4.68437e-38,-0.331967,-0.112173,9.88379,2.82791,0.407036,-6.53027,3.99585,-0.584717
99,-4.6867e-38,-0.331117,-0.116815,9.89337,2.9113,0.493112,-2.67163,3.9939,-0.587402
100,-4.68904e-38,-0.355685,-0.115909,9.88423,2.88995,0.477552,5.85522,3.99243,-0.586426
101,-4.69138e-38,-0.350539,-0.105108,9.86933,2.77333,0.350249,-2.85425,3.99316,-0.589355
102,-4.69371e-38,-0.371837,-0.124857,9.85929,2.94144,0.430217,3.48901,3.99609,-0.584717
103,-4.69605e-38,-0.354313,-0.119938,9.88323,2.86851,0.370203,0.761719,3.99561,-0.589844
104,-4.69838e-38,-0.357878,-0.0941771,9.87127,2.91403,0.449069,3.59668,3.99438,-0.587891
105,-4.70072e-38,-0.354854,-0.0879105,9.87854,2.89864,0.432368,-3.17554,3.99805,-0.588867
106,-4.70413e-38,-0.350921,-0.115247,9.8709,2.8408,0.490154,4.32935,3.99536,-0.593262
107,-4.7088e-38,-0.345582,-0.0907574,9.87551,2.7846,0.427399,4.28223,3.99146,-0.586914
108,-4.71347e-38,-0.346495,-0.0931037,9.89416,2.77154,0.3211,-3.37671,3.99146,-0.591064
109,-4.71814e-38,-0.351154,-0.107427,9.89137,2.84533,0.330859,4.17578,3.99292,-0.586914
110,-4.72281e-38,-0.351951,-0.103986,9.91526,2.87666,0.464796,-5.11304,3.99487,-0.587402
111,-4.72748e-38,-0.352826,-0.114434,9.87749,2.87261,0.527909,7.63379,3.99585,-0.586914
112,-4.73215e-38,-0.350745,-0.135376,9.88976,2.93178,0.424991,-4.37842,3.99536,-0.585205
113,-4.73682e-38,-0.344517,-0.141905,9.89588,2.8065,0.470892,7.16553,3.99292,-0.589355
114,-4.74149e-38,-0.335589,-0.129707,9.8809,2.90637,0.365771,-3.80029,3.99463,-0.584229
115,-4.74616e-38,-0.337961,-0.117116,9.89886,2.85893,0.461902,-4.6377,3.99292,-0.590576
116,-4.75084e-38,-0.33616,-0.0932306,9.8924,2.90061,0.533237,7.31738,3.99683,-0.587402
117,-4.75551e-38,-0.332562,-0.12181,9.89596,2.77607,0.496455,-5.10815,3.99146,-0.587402
118,-4.76018e-38,-0.342011,-0.11107,9.87724,2.84858,0.416513,5.75098,3.99146,-0.590576
119,-4.76485e-38,-0.34317,-0.121061,9.88715,2.87435,0.392205,-3.06274,3.99219,-0.585693
120,-4.76952e-38,-0.354692,-0.121648,9.85986,2.8732,0.445662,-5.63745,3.99536,-0.592773
121,-4.77419e-38,-0.359109,-0.114668,9.87438,2.83972,0.490922,-6.42285,3.9939,-0.585693
122,-4.77886e-38,-0.350432,-0.105595,9.8687,2.82594,0.444919,1.1853,3.99365,-0.585693
123,-4.78353e-38,-0.335895,-0.133953,9.88892,2.86083,0.479575,-0.600342,3.99438,-0.587402
124,-4.7882e-38,-0.346794,-0.11012,9.87314,2.87668,0.466922,5.69116,3.99731,-0.584229
125,-4.79287e-38,-0.380422,-0.102806,9.87458,2.83191,0.518765,-5.69043,3.99561,-0.590576
126,-4.79754e-38,-0.366582,-0.0964385,9.88927,2.79487,0.447045,0.922119,3.99365,-0.584717
127,-4.80221e-38,-0.358373,-0.110695,9.86285,2.88122,0.345638,-0.0266113,3.99731,-0.588867
128,-4.80689e-38,-0.36506,-0.119287,9.89105,2.80783,0.259472,-0.286133,3.99487,-0.586426
129,-4.81156e-38,-0.337484,-0.0977793,9.89216,2.87627,0.419075,4.69751,3.99512,-0.588379
130,-4.81623e-38,-0.355736,-0.1307,9.87213,2.77961,0.418588,-4.43042,3.99438,-0.590088
131,-4.8209e-38,-0.31377,-0.122788,9.83743,2.87919,0.467613,0.661377,3.99268,-0.585205
132,-4.82557e-38,-0.331432,-0.114189,9.90311,2.78457,0.405832,1.65747,3.99316,-0.590088
133,-4.83024e-38,-0.341216,-0.121132,9.86701,2.89405,0.41221,7.52734,3.99683,-0.585938
134,-4.83491e-38,-0.327255,-0.119159,9.86913,2.95253,0.385699,-0.552246,3.99756,-0.587891
135,-4.83958e-38,-0.374437,-0.126043,9.89696,2.75427,0.456548,-7.62988,3.99414,-0.590088
136,-4.84425e-38,-0.339508,-0.110982,9.85809,2.85622,0.482623,-2.64795,3.99585,-0.584229
137,-4.84892e-38,-0.35196,-0.121589,9.87908,2.78122,0.416436,5.7981,3.99561,-0.587891
138,-4.85359e-38,-0.345041,-0.108541,9.88047,2.76444,0.563641,4.38281,3.99487,-0.585205
139,-4.85826e-38,-0.357202,-0.122316,9.85211,2.85245,0.547479,5.95312,3.99683,-0.590088
140,-4.86294e-38,-0.366853,-0.105302,9.87697,2.89177,0.391488,-2.96729,3.99902,-0.586914
141,-4.86761e-38,-0.360328,-0.100216,9.89351,2.82154,0.452091,-3.11768,3.99414,-0.587402
142,-4.87228e-38,-0.341761,-0.130166,9.85909,2.87668,0.423916,1.65454,3.99512,-0.591064
143,-4.87695e-38,-0.33685,-0.116934,9.88981,2.95158,0.391078,3.64844,3.99487,-0.584229
144,-4.88162e-38,-0.363108,-0.121286,9.85163,2.90652,0.509006,-4.06128,3.99365,-0.590576
145,-4.88629e-38,-0.343248,-0.102481,9.86193,2.84695,0.474709,-5.63428,3.99268,-0.5896
146,-4.89096e-38,-0.371072,-0.0833381,9.87911,2.83949,0.52983,-4.64062,3.99512,-0.586914
147,-4.89563e-38,-0.352483,-0.102489,9.87159,2.88872,0.461697,-4.11792,3.99683,-0.587891
148,-4.9003e-38,-0.344179,-0.10263,9.86645,2.85901,0.534748,-1.65356,3.99707,-0.586182
149,-4.90497e-38,-0.352655,-0.108922,9.86893,2.90706,0.381037,-6.68652,3.99536,-0.587891
150,-4.90964e-38,-0.352043,-0.117045,9.8771,2.93987,0.457112,3.85815,3.99512,-0.585938
151,-4.91431e-38,-0.348984,-0.118042,9.85366,2.94915,0.410314,-0.125977,3.99268,-0.590576
152,-4.91898e-38,-0.365899,-0.107227,9.85862,2.96577,0.427322,-4.58594,3.99365,-0.585693
153,-4.92366e-38,-0.355251,-0.0986281,9.84744,2.90519,0.45455,5.11523,3.99658,-0.587891
154,-4.92833e-38,-0.34945,-0.102913,9.88846,2.85343,0.479294,-6.16284,3.99561,-0.590088
155,-4.933e-38,-0.340201,-0.123006,9.88837,2.88176,0.483136,6.84961,3.99365,-0.585205
156,-4.93767e-38,-0.348444,-0.126792,9.87418,2.9169,0.526475,-0.968262,3.99487,-0.588379
157,-4.94234e-38,-0.330375,-0.117828,9.84654,2.87412,0.513796,1.34058,3.99463,-0.589111
158,-4.94701e-38,-0.348389,-0.120606,9.89461,2.98211,0.337852,0.60791,3.99341,-0.587402
159,-4.95168e-38,-0.350689,-0.112324,9.89619,2.74124,0.434469,4.54077,3.99438,-0.590088
160,-4.95635e-38,-0.356771,-0.108461,9.89066,2.87948,0.449043,-5.79321,3.9939,-0.586182
161,-4.96102e-38,-0.348159,-0.112556,9.85465,2.80745,0.362621,-5.05566,3.99146,-0.590576
162,-4.96569e-38,-0.360018,-0.103245,9.89643,2.91721,0.425478,6.90527,3.99121,-0.584229
163,-4.97036e-38,-0.343827,-0.100121,9.86547,2.87584,0.44118,6.37549,3.99561,-0.590576
164,-4.97503e-38,-0.345134,-0.101262,9.8934,2.91933,0.542381,-0.338135,3.99438,-0.590088
165,-4.97971e-38,-0.357485,-0.10906,9.896,2.83086,0.464335,7.16528,3.99341,-0.588867
166,-4.98438e-38,-0.357172,-0.0947574,9.85859,2.90919,0.374352,-4.00879,3.99365,-0.588379
167,-4.98905e-38,-0.359943,-0.132916,9.88001,2.85396,0.383189,-4.8457,3.9917,-0.587891
168,-4.99372e-38,-0.362724,-0.133314,9.89138,2.8327,0.387364,2.07837,3.99219,-0.589355
169,-4.99839e-38,-0.36812,-0.118969,9.87776,2.96272,0.356678,5.48438,3.99512,-0.584717
170,-5.00306e-38,-0.345863,-0.131317,9.89026,2.88729,0.494022,6.21924,3.99463,-0.586914
171,-5.00773e-38,-0.351111,-0.104074,9.89956,2.77789,0.375402,4.64478,3.99487,-0.590088
172,-5.0124e-38,-0.363167,-0.115997,9.87495,2.92773,0.526014,0.345215,3.99341,-0.586426
173,-5.01707e-38,-0.338029,-0.102332,9.89472,3.00732,0.442204,-2.85889,3.99609,-0.590576
174,-5.02174e-38,-0.337748,-0.121396,9.87632,2.84838,0.464361,-7.47681,3.9978,-0.58374
175,-5.02641e-38,-0.343994,-0.113132,9.9017,2.95173,0.30089,-6.6333,3.99487,-0.587891
176,-5.03108e-38,-0.341922,-0.10012,9.87173,2.93803,0.4587,4.96338,3.99219,-0.588867
177,-5.03575e-38,-0.362908,-0.103401,9.85558,2.93288,0.445278,-1.54102,3.9917,-0.587402
178,-5.04043e-38,-0.374474,-0.125494,9.88874,2.92041,0.487567,-7.78613,3.9939,-0.5896
179,-5.0451e-38,-0.361002,-0.126212,9.90399,2.8648,0.487926,5.17212,3.99316,-0.58374
180,-5.04977e-38,-0.347032,-0.122974,9.90057,2.87976,0.425068,-3.06372,3.99292,-0.59375
181,-5.05444e-38,-0.339839,-0.115835,9.8729,2.94495,0.491896,-0.286377,3.99512,-0.586426
182,-5.05911e-38,-0.345674,-0.0968532,9.89192,2.85427,0.526603,7.00732,3.99365,-0.588379
183,-5.06378e-38,-0.32814,-0.0952525,9.89417,2.93982,0.337954,4.69824,3.99414,-0.587891
184,-5.06845e-38,-0.331192,-0.10881,9.87538,2.94023,0.464002,-7.573,3.99121,-0.584717
185,-5.07312e-38,-0.33476,-0.1191,9.89858,2.83726,0.437747,6.32422,3.99438,-0.588379
186,-5.07779e-38,-0.354314,-0.102698,9.85518,2.88529,0.383138,-6.94678,3.99365,-0.585693
187,-5.08246e-38,-0.365856,-0.117362,9.91173,3.00847,0.462542,3.01831,3.99536,-0.589355
188,-5.08713e-38,-0.338987,-0.120534,9.8796,2.8909,0.463695,2.75977,3.99268,-0.588867
189,-5.0918e-38,-0.35941,-0.113134,9.86078,2.85568,0.445278,-7.3147,3.99414,-0.586914
190,-5.09648e-38,-0.352569,-0.113673,9.83004,2.86039,0.493458,-6.8938,3.99341,-0.590576
191,-5.10115e-38,-0.335095,-0.133954,9.88004,2.86931,0.459161,-3.0647,3.99365,-0.58374
192,-5.10582e-38,-0.340334,-0.111093,9.88031,2.85937,0.454755,-5.3208,3.9939,-0.591064
193,-5.11049e-38,-0.356257,-0.121667,9.87037,2.86605,0.413183,-4.53735,3.99609,-0.586914
194,-5.11516e-38,-0.359237,-0.121582,9.88542,2.87394,0.508622,-2.96021,3.9939,-0.587891
195,-5.11983e-38,-0.356965,-0.1307,9.8811,2.91931,0.515128,3.55029,3.98999,-0.586914
196,-5.1245e-38,-0.357066,-0.117951,9.87307,2.89974,0.355423,3.28394,3.99292,-0.587402
197,-5.12917e-38,-0.350012,-0.106221,9.8799,2.96213,0.428116,-6.63281,3.99438,-0.587891
198,-5.13384e-38,-0.346012,-0.0840027,9.8766,2.93204,0.468331,-3.7478,3.99438,-0.58374
199,-5.13851e-38,-0.343715,-0.0935582,9.8668,2.79697,0.568149,-5.68848,3.9939,-0.588379
200,-5.14318e-38,-0.334303,-0.104884,9.86458,2.85673,0.506855,0.873047,3.99121,-0.588867
201,-5.14785e-38,-0.346026,-0.124699,9.89965,2.79049,0.441103,-0.38916,3.99316,-0.585205
202,-5.15253e-38,-0.354863,-0.103421,9.90177,2.9859,0.318641,4.85767,3.99292,-0.588379
203,-5.1572e-38,-0.340289,-0.101026,9.86721,2.91726,0.389464,4.43799,3.99292,-0.585693
204,-5.16187e-38,-0.369775,-0.123416,9.86006,2.94541,0.463976,-7.83862,3.9939,-0.588867
205,-5.16654e-38,-0.345738,-0.129529,9.88334,2.92381,0.473121,-0.812744,3.99634,-0.587891
206,-5.17121e-38,-0.328988,-0.110383,9.8749,2.91918,0.479217,3.75195,3.99609,-0.587402
207,-5.17588e-38,-0.348714,-0.112832,9.89003,2.78352,0.487644,-6.2666,3.99463,-0.586914
208,-5.18055e-38,-0.355232,-0.121324,9.86903,2.81554,0.405781,-2.64819,3.99536,-0.584229
209,-5.18522e-38,-0.325784,-0.098693,9.8898,2.97499,0.413106,-3.4873,3.99561,-0.587402
210,-5.18989e-38,-0.346004,-0.120583,9.87176,2.96774,0.54274,-6.78906,3.99316,-0.584717
211,-5.19456e-38,-0.331077,-0.132573,9.86424,2.85015,0.471789,7.84302,3.99634,-0.587402
212,-5.19923e-38,-0.355653,-0.131082,9.85875,2.81869,0.371791,7.00879,3.99243,-0.584717
213,-5.2039e-38,-0.349742,-0.106625,9.86434,2.85558,0.523837,1.7085,3.9939,-0.586914
214,-5.20857e-38,-0.351131,-0.112896,9.87082,2.9075,0.403808,6.79468,3.99585,-0.590576
215,-5.21325e-38,-0.358048,-0.125328,9.86498,2.84403,0.30294,-3.0144,3.99512,-0.585205
216,-5.21792e-38,-0.326307,-0.131486,9.8737,2.93624,0.417256,7.84595,3.99438,-0.588867
217,-5.22259e-38,-0.352813,-0.120799,9.90595,2.82771,0.412748,-1.75488,3.99463,-0.585938
218,-5.22726e-38,-0.354894,-0.122478,9.86236,2.83555,0.46349,-5.69043,3.99585,-0.587891
219,-5.23193e-38,-0.350182,-0.112799,9.88584,2.95178,0.506009,-7.99902,3.99585,-0.586426
220,-5.2366e-38,-0.337562,-0.131595,9.8827,2.93045,0.480574,-6.26343,3.99268,-0.584229
221,-5.24127e-38,-0.352696,-0.123324,9.87665,2.86423,0.571377,0.870117,3.99292,-0.590088
222,-5.24594e-38,-0.354903,-0.134844,9.90393,2.80209,0.471789,0.345703,3.99316,-0.584717
223,-5.25061e-38,-0.332375,-0.107162,9.91485,2.86237,0.455498,-3.06348,3.99316,-0.591553
224,-5.25528e-38,-0.347037,-0.128148,9.8932,2.84523,0.497915,7.58301,3.99487,-0.5896
225,-5.25995e-38,-0.348594,-0.113025,9.87193,2.89682,0.498837,-6.57715,3.99219,-0.586914
226,-5.26462e-38,-0.343376,-0.0990012,9.88211,2.88281,0.442383,3.59473,3.99585,-0.590576
227,-5.2693e-38,-0.351544,-0.120306,9.89925,2.8731,0.649014,5.01294,3.99438,-0.586182
228,-5.27397e-38,-0.352932,-0.130915,9.87864,2.96124,0.506855,0.609375,3.99243,-0.591553
229,-5.27864e-38,-0.350287,-0.124842,9.89878,2.98311,0.532699,-0.91333,3.99341,-0.587891
230,-5.28331e-38,-0.368403,-0.105166,9.89339,2.75566,0.484007,4.27417,3.9978,-0.586914
231,-5.28798e-38,-0.355326,-0.124853,9.86651,2.93542,0.372252,-3.90454,3.9939,-0.588379
232,-5.29265e-38,-0.338289,-0.0985071,9.87743,2.89305,0.497454,-2.17529,3.99536,-0.58252
233,-5.29732e-38,-0.350492,-0.0972022,9.89602,2.86265,0.373763,6.53149,3.99658,-0.589844
234,-5.30199e-38,-0.35917,-0.109601,9.87184,2.83598,0.638742,-1.22681,3.99219,-0.58374
235,-5.30666e-38,-0.342428,-0.111672,9.89479,2.9306,0.429397,-3.59033,3.99463,-0.589355
236,-5.31133e-38,-0.36668,-0.140584,9.86108,2.94574,0.621068,3.2854,3.9917,-0.588379
237,-5.316e-38,-0.373342,-0.100975,9.8961,2.87922,0.547018,-4.37427,3.99219,-0.588379
238,-5.32067e-38,-0.376455,-0.112519,9.8664,2.8824,0.592688,3.54712,3.99219,-0.589355
239,-5.32535e-38,-0.367722,-0.125084,9.88851,2.89761,0.454858,-3.64062,3.99243,-0.582031
240,-5.33002e-38,-0.341542,-0.102519,9.88699,2.85083,0.505945,-2.41138,3.99561,-0.591553
241,-5.33469e-38,-0.351454,-0.130207,9.87547,2.80581,0.466358,-5.47754,3.99365,-0.586426
242,-5.33936e-38,-0.321467,-0.108423,9.87037,2.91551,0.372969,0.13208,3.99609,-0.587891
243,-5.34403e-38,-0.341875,-0.0966807,9.87671,2.86021,0.408906,4.53516,3.99878,-0.587402
244,-5.3487e-38,-0.350435,-0.0980862,9.88828,2.97343,0.425324,2.49438,3.99512,-0.588379
245,-5.35337e-38,-0.343042,-0.0860459,9.87838,2.85983,0.422071,3.48975,3.99585,-0.590576
246,-5.35804e-38,-0.35531,-0.120159,9.87494,2.88088,0.448454,-0.547852,3.99414,-0.584717
247,-5.36271e-38,-0.369814,-0.129035,9.8817,2.84349,0.414592,7.6355,3.99487,-0.590576
248,-5.36738e-38,-0.379562,-0.124485,9.87973,2.97671,0.465539,6.95361,3.99463,-0.586426
249,-5.37205e-38,-0.365457,-0.116835,9.88513,2.92932,0.422994,-1.80688,3.99463,-0.589355
250,-5.37672e-38,-0.363651,-0.103564,9.88422,2.9495,0.43516,3.12451,3.99463,-0.590088
251,-5.38139e-38,-0.358246,-0.0962371,9.86374,2.84367,0.492511,4.54346,3.99243,-0.587402
252,-5.38607e-38,-0.342932,-0.0952667,9.87905,2.86042,0.422071,-2.64624,3.99463,-0.591553
253,-5.39074e-38,-0.344632,-0.108029,9.87537,2.77666,0.440744,2.12427,3.99731,-0.586426
254,-5.39541e-38,-0.354845,-0.108542,9.87761,2.89213,0.469176,7.16553,3.99316,-0.585693
255,-5.40008e-38,-0.373574,-0.105524,9.85541,2.82827,0.55588,-5.5354,3.99731,-0.588867
256,-5.40475e-38,-0.374658,-0.0984887,9.8809,2.88734,0.427245,0.188232,3.99365,-0.58374
257,-5.40942e-38,-0.358557,-0.112348,9.89605,2.90563,0.56277,-5.74634,3.99805,-0.588867
258,-5.41409e-38,-0.362624,-0.105332,9.88466,2.89139,0.50519,-3.43359,3.99487,-0.584717
259,-5.41876e-38,-0.359449,-0.103003,9.8702,2.85565,0.407061,0.914795,3.99927,-0.589355
260,-5.42343e-38,-0.354556,-0.119621,9.88552,2.86931,0.494227,-0.130859,3.99658,-0.587891
261,-5.4281e-38,-0.331682,-0.123968,9.87392,2.87517,0.354399,4.90137,3.99951,-0.588379
262,-5.43277e-38,-0.341966,-0.126343,9.87457,2.80248,0.471379,2.96216,3.99829,-0.588867
263,-5.43744e-38,-0.371709,-0.124992,9.84688,2.88524,0.533596,4.54346,3.99243,-0.585693
264,-5.44212e-38,-0.354775,-0.117128,9.89097,2.89956,0.44287,1.70874,3.99438,-0.590576
265,-5.44679e-38,-0.362275,-0.101187,9.908,2.93324,0.370894,-2.80347,3.99414,-0.587402
266,-5.45146e-38,-0.340616,-0.124621,9.88938,2.87707,0.493228,-0.231445,3.99341,-0.587891
267,-5.45613e-38,-0.362976,-0.114928,9.89034,2.75402,0.397072,7.95288,3.99243,-0.587891
268,-5.4608e-38,-0.336819,-0.110299,9.84826,2.83319,0.280527,2.02344,3.99414,-0.585693
269,-5.46547e-38,-0.351709,-0.118395,9.87717,2.82566,0.422661,0.45166,3.99268,-0.587402
270,-5.47014e-38,-0.352328,-0.11737,9.86649,2.92653,0.443049,5.06763,3.99316,-0.58252
271,-5.47481e-38,-0.356238,-0.124459,9.89361,2.90091,0.403271,-2.37988,3.99146,-0.588379
272,-5.47948e-38,-0.362582,-0.129644,9.87253,2.89151,0.43265,-7.73364,3.9939,-0.588379
273,-5.48415e-38,-0.358861,-0.1175,9.86432,2.81813,0.514718,7.05518,3.99683,-0.588379
274,-5.48882e-38,-0.369105,-0.121624,9.85042,2.90035,0.531547,5.17163,3.99341,-0.590576
275,-5.49349e-38,-0.356228,-0.101912,9.86542,2.98152,0.516921,4.17285,3.99512,-0.585693
276,-5.49816e-38,-0.350027,-0.112546,9.83597,2.82592,0.387492,-6.57959,3.9939,-0.590576
277,-5.50284e-38,-0.32251,-0.0931713,9.85853,2.93903,0.522454,-5.58496,3.99536,-0.584229
278,-5.50751e-38,-0.351233,-0.114442,9.87412,2.97548,0.511977,-7.68091,3.99316,-0.588379
279,-5.51218e-38,-0.362452,-0.0982581,9.88918,2.88286,0.432983,0.918457,3.99658,-0.589355
280,-5.51685e-38,-0.344276,-0.118075,9.87023,2.98931,0.490359,-4.7439,3.99414,-0.586182
281,-5.52152e-38,-0.349031,-0.0899872,9.88025,2.77797,0.525758,1.12817,3.99658,-0.588379
282,-5.52619e-38,-0.351636,-0.112108,9.87603,2.92077,0.486005,-1.85669,3.99219,-0.586182
283,-5.53086e-38,-0.375397,-0.126511,9.85956,2.92115,0.451656,5.80225,3.99243,-0.589355
284,-5.53553e-38,-0.352209,-0.11592,9.88129,2.88462,0.407753,4.64648,3.99365,-0.586182
285,-5.5402e-38,-0.339402,-0.120944,9.9048,2.8178,0.413465,-6.57861,3.99268,-0.587891
286,-5.54487e-38,-0.33774,-0.118129,9.88103,2.92148,0.478628,2.44141,3.99536,-0.589355
287,-5.54954e-38,-0.34339,-0.126432,9.89545,2.86057,0.384085,-2.75146,3.99438,-0.583252
288,-5.55421e-38,-0.356306,-0.116075,9.8927,2.98652,0.4066,-3.85205,3.99414,-0.589355
289,-5.55889e-38,-0.35365,-0.124779,9.86304,2.70991,0.510159,6.32617,3.99292,-0.586426
290,-5.56356e-38,-0.35873,-0.099383,9.8843,2.93396,0.480318,-1.4375,3.99292,-0.587891
291,-5.56823e-38,-0.366396,-0.110048,9.89348,2.94208,0.599219,5.69702,3.99268,-0.586182
292,-5.5729e-38,-0.359331,-0.108259,9.86257,2.9022,0.477834,6.22632,3.9895,-0.585205
293,-5.57757e-38,-0.360958,-0.113798,9.87303,2.89123,0.358881,-6.68457,3.9939,-0.590576
294,-5.58224e-38,-0.346569,-0.105406,9.87091,2.74077,0.483469,-0.281982,3.99146,-0.586182
295,-5.58691e-38,-0.35237,-0.110197,9.90149,2.92415,0.519124,1.39502,3.99341,-0.588867
296,-5.59158e-38,-0.357272,-0.110349,9.90755,2.9856,0.448787,0.818115,3.99316,-0.588867
297,-5.59625e-38,-0.357609,-0.106698,9.88737,2.84987,0.598016,-0.180176,3.99414,-0.587891
298,-5.60092e-38,-0.339248,-0.102449,9.85629,2.86167,0.441487,3.64917,3.99438,-0.590576
299,-5.60559e-38,-0.359614,-0.100199,9.90058,2.80243,0.497377,-3.90161,3.99146,-0.586914
300,-5.61026e-38,-0.349424,-0.0990459,9.89929,2.81452,0.378143,7.6875,3.99536,-0.588379
301,-5.61494e-38,-0.332231,-0.104296,9.89525,2.87504,0.327939,5.53589,3.99536,-0.585693
302,-5.61961e-38,-0.348327,-0.0879109,9.89345,2.867,0.448941,4.75,3.99487,-0.587891
303,-5.62428e-38,-0.343032,-0.11052,9.86195,2.86608,0.513412,2.96533,3.99585,-0.58667
304,-5.62895e-38,-0.349141,-0.100277,9.87589,2.83242,0.427937,-3.11621,3.99268,-0.584229
305,-5.63362e-38,-0.344879,-0.119884,9.89573,2.84087,0.465129,-1.12134,3.9917,-0.591064
306,-5.63829e-38,-0.363438,-0.120607,9.86104,2.99348,0.485902,-1.43481,3.99048,-0.584229
307,-5.64296e-38,-0.375936,-0.114185,9.89755,2.84753,0.404346,2.17993,3.99438,-0.589355
308,-5.64763e-38,-0.359978,-0.144174,9.85987,2.97947,0.451323,-4.58643,3.99414,-0.587402
309,-5.6523e-38,-0.355139,-0.109332,9.88364,2.85791,0.457547,0.501465,3.99487,-0.587891
310,-5.65697e-38,-0.365742,-0.113395,9.88462,2.84134,0.481701,-7.26147,3.99341,-0.588379
311,-5.66164e-38,-0.349989,-0.110354,9.8869,2.96518,0.378988,-5.79321,3.9939,-0.584717
312,-5.66631e-38,-0.351315,-0.0873221,9.90105,2.87371,0.456087,-1.33154,3.99194,-0.592529
313,-5.67098e-38,-0.330915,-0.106596,9.86388,2.82405,0.508878,0.60498,3.99512,-0.587402
314,-5.67566e-38,-0.355101,-0.114693,9.88183,2.91575,0.332985,-1.0188,3.99365,-0.587891
315,-5.68033e-38,-0.359175,-0.127415,9.89148,2.88311,0.437414,6.63696,3.99658,-0.590088
316,-5.685e-38,-0.392683,-0.129531,9.86416,2.91905,0.380243,-5.63721,3.99512,-0.587891
317,-5.68967e-38,-0.371751,-0.111196,9.9273,2.83714,0.398455,-4.7998,3.99658,-0.588379
318,-5.69434e-38,-0.358172,-0.130278,9.87345,2.79654,0.380935,1.08057,3.99316,-0.585693
319,-5.69901e-38,-0.335755,-0.109562,9.88817,2.97274,0.528601,0.399658,3.99194,-0.587891
320,-5.70368e-38,-0.333739,-0.100395,9.87094,2.94187,0.401913,-4.4292,3.99414,-0.587402
321,-5.70835e-38,-0.330433,-0.105484,9.83165,2.84336,0.444356,7.79346,3.99438,-0.586914
322,-5.71302e-38,-0.333542,-0.11196,9.88856,3.01579,0.486517,1.49561,3.99609,-0.588379
323,-5.71769e-38,-0.323794,-0.100315,9.86559,2.89369,0.351735,0.192871,3.98999,-0.58252
324,-5.72236e-38,-0.370379,-0.104416,9.91042,2.92243,0.35135,-3.27295,3.99243,-0.591064
325,-5.72703e-38,-0.356646,-0.122121,9.85456,2.83414,0.483981,-3.69458,3.99341,-0.586914
326,-5.73171e-38,-0.355922,-0.0981713,9.86477,2.92369,0.471558,4.38281,3.99487,-0.589355
327,-5.73638e-38,-0.365591,-0.113572,9.86374,2.88721,0.373327,0.765625,3.99292,-0.586914
328,-5.74105e-38,-0.345439,-0.0982417,9.87731,2.8515,0.513386,-4.79834,3.99512,-0.589355
329,-5.74572e-38,-0.34527,-0.115313,9.84521,2.80222,0.440206,4.64453,3.99536,-0.586914
330,-5.75039e-38,-0.37843,-0.124419,9.91504,2.89643,0.392999,-4.0603,3.99292,-0.586914
331,-5.75506e-38,-0.373147,-0.141155,9.9015,2.91864,0.436646,1.97412,3.9917,-0.588867
332,-5.75973e-38,-0.331622,-0.125952,9.87474,2.91019,0.410878,6.48267,3.9939,-0.589844
333,-5.7644e-38,-0.358029,-0.121523,9.87249,2.81588,0.578933,2.75854,3.99365,-0.586914
334,-5.76907e-38,-0.359619,-0.124063,9.87716,2.74587,0.561874,5.38013,3.99414,-0.591064
335,-5.77374e-38,-0.378395,-0.0974173,9.86808,2.7648,0.523299,5.74487,3.99634,-0.584229
336,-5.77841e-38,-0.343483,-0.102398,9.87924,2.73329,0.457342,-4.69116,3.99341,-0.591064
337,-5.78308e-38,-0.339962,-0.0938449,9.87496,2.76657,0.468536,-3.80005,3.9939,-0.589111
338,-5.78776e-38,-0.337651,-0.108025,9.84066,2.75304,0.53836,-1.7019,3.99463,-0.58667
339,-5.79243e-38,-0.356081,-0.107839,9.86686,2.79897,0.487413,-0.651611,3.99341,-0.586914
340,-5.7971e-38,-0.35449,-0.118744,9.86727,2.82656,0.502551,-0.491943,3.99194,-0.586182
341,-5.80177e-38,-0.351945,-0.11463,9.88215,2.79236,0.425606,6.90112,3.99512,-0.590576
342,-5.80644e-38,-0.35053,-0.102836,9.89774,2.75179,0.421277,6.64111,3.99316,-0.583252
343,-5.81111e-38,-0.355414,-0.119254,9.85628,2.69877,0.339978,-5.16284,3.99316,-0.588867
344,-5.81578e-38,-0.355125,-0.118043,9.87708,2.74941,0.631852,-3.74878,3.99512,-0.587891
345,-5.82045e-38,-0.336254,-0.108823,9.91184,2.75604,0.400863,-6.78882,3.99292,-0.588867
346,-5.82512e-38,-0.331228,-0.0858149,9.84248,2.78742,0.417128,7.6355,3.99487,-0.590576
347,-5.82979e-38,-0.342459,-0.0902335,9.86581,2.76367,0.315081,-3.58862,3.99292,-0.583252
348,-5.83446e-38,-0.345779,-0.0942382,9.87253,2.68998,0.404372,-0.233643,3.99438,-0.591064
349,-5.83913e-38,-0.363939,-0.115639,9.89089,2.79218,0.369434,-0.0227051,3.99414,-0.586914
350,-5.8438e-38,-0.353795,-0.0864748,9.85398,2.59716,0.442665,3.75049,3.99707,-0.588867
351,-5.84848e-38,-0.348966,-0.112318,9.88264,2.5624,0.549681,1.70898,3.99365,-0.588379
352,-5.85315e-38,-0.352798,-0.109494,9.86236,2.6887,0.424172,7.31836,3.99658,-0.585938
353,-5.85782e-38,-0.335141,-0.15034,9.91023,2.87118,0.452834,-7.15454,3.99219,-0.586182
354,-5.86249e-38,-0.337049,-0.137748,9.91636,3.05242,0.472275,1.18359,3.99438,-0.585693
355,-5.86716e-38,-0.33906,-0.109378,9.85161,3.0515,0.441052,7.69043,3.99292,-0.587891
356,-5.87183e-38,-0.365607,-0.092516,9.83079,2.96188,0.569584,-6.68457,3.9939,-0.585205
357,-5.8765e-38,-0.366143,-0.0800159,9.84807,2.91564,0.477757,-6.89697,3.99585,-0.587891
358,-5.88117e-38,-0.381317,-0.10399,9.87258,2.75724,0.417794,1.13184,3.9939,-0.590576
359,-5.88584e-38,-0.345469,-0.125945,9.86053,2.93598,0.604522,2.54858,3.99365,-0.584229
360,-5.89051e-38,-0.344923,-0.120525,9.88079,2.88626,0.409572,-4.22168,3.99561,-0.590088
361,-5.89518e-38,-0.335427,-0.130378,9.86834,2.88923,0.371304,0.289062,3.99634,-0.585205
362,-5.89985e-38,-0.349495,-0.110979,9.87321,2.8129,0.444561,7.05957,3.99438,-0.587891
363,-5.90453e-38,-0.37025,-0.0929146,9.85405,2.90857,0.381217,6.90088,3.99463,-0.587402
364,-5.9092e-38,-0.356441,-0.135563,9.89687,2.79531,0.381857,-4.37646,3.9939,-0.586182
365,-5.91387e-38,-0.330256,-0.132376,9.86042,2.84041,0.485441,-0.283691,3.99268,-0.588867
366,-5.91854e-38,-0.336085,-0.120325,9.8721,2.97238,0.453859,3.91333,3.99268,-0.58374
367,-5.92321e-38,-0.35308,-0.112071,9.87492,2.93713,0.525988,6.90015,3.99512,-0.587891
368,-5.92788e-38,-0.359053,-0.1097,9.85851,2.75064,0.468203,2.23413,3.99341,-0.588379
369,-5.93255e-38,-0.38248,-0.113737,9.91133,2.88698,0.490052,7.27075,3.99292,-0.58374
370,-5.93722e-38,-0.342199,-0.0997158,9.86969,2.90253,0.413081,0.76416,3.99414,-0.592529
371,-5.94189e-38,-0.349606,-0.121872,9.8868,3.00022,0.403937,6.32812,3.9917,-0.586426
372,-5.94656e-38,-0.325996,-0.114748,9.88494,2.80491,0.433239,-3.64771,3.99805,-0.590088
373,-5.95123e-38,-0.342509,-0.104127,9.87995,2.85445,0.559773,6.27344,3.99316,-0.585938
374,-5.9559e-38,-0.362469,-0.109868,9.87566,2.88608,0.42389,2.54517,3.99609,-0.585205
375,-5.96057e-38,-0.354233,-0.108003,9.87808,2.97748,0.45286,-7.57666,3.99365,-0.588867
376,-5.96525e-38,-0.368432,-0.131572,9.8694,2.93462,0.44994,4.59399,3.99365,-0.583008
377,-5.96992e-38,-0.353385,-0.114352,9.87874,2.82525,0.386544,-7.00171,3.99561,-0.588379
378,-5.97459e-38,-0.377247,-0.109508,9.85601,2.74597,0.578293,-3.58716,3.9917,-0.585693
379,-5.97926e-38,-0.362012,-0.0986135,9.84031,2.81616,0.42453,0.49585,3.99878,-0.587891
380,-5.98393e-38,-0.328847,-0.0976284,9.86555,2.90225,0.45911,-2.43604,3.9939,-0.588867
381,-5.9886e-38,-0.328985,-0.0915985,9.91168,2.9108,0.34989,-7.47437,3.99585,-0.588867
382,-5.99327e-38,-0.334422,-0.108437,9.88168,2.88424,0.522607,-3.06567,3.9939,-0.5896
383,-5.99794e-38,-0.354239,-0.115775,9.86658,2.8386,0.453039,-2.11865,3.99219,-0.58374
384,-6.00261e-38,-0.359188,-0.120281,9.85682,2.87353,0.531777,-3.16895,3.99341,-0.590576
385,-6.00728e-38,-0.363048,-0.109142,9.86306,2.93229,0.375505,7.05786,3.99536,-0.587891
386,-6.01195e-38,-0.367068,-0.0987167,9.87502,2.95081,0.327837,2.6543,3.99268,-0.587891
387,-6.01662e-38,-0.384619,-0.110392,9.89224,2.9452,0.544123,1.38867,3.9978,-0.587402
388,-6.0213e-38,-0.362294,-0.0937193,9.84605,2.9463,0.460442,7.94751,3.99658,-0.585205
389,-6.02597e-38,-0.340675,-0.116211,9.86764,2.94054,0.468254,-2.85767,3.99561,-0.591064
390,-6.03064e-38,-0.32472,-0.108355,9.87667,2.83819,0.369793,7.48145,3.99194,-0.585205
391,-6.03531e-38,-0.358343,-0.105704,9.86894,2.87666,0.427963,6.48218,3.99414,-0.587402
392,-6.03998e-38,-0.362962,-0.105931,9.8622,2.88311,0.542279,-1.80518,3.99316,-0.590576
393,-6.04465e-38,-0.361645,-0.116131,9.86655,2.77825,0.418998,-0.0253906,3.99609,-0.587402
394,-6.04932e-38,-0.350665,-0.121077,9.87574,2.83783,0.457624,-3.69287,3.99268,-0.588379
395,-6.05399e-38,-0.321947,-0.118757,9.87289,2.89682,0.422865,-4.32324,3.99316,-0.587402
396,-6.05866e-38,-0.346888,-0.101142,9.8702,2.94671,0.439924,-4.84961,3.99438,-0.590576
397,-6.06333e-38,-0.350806,-0.115175,9.85845,2.93309,0.314338,-0.753662,3.99146,-0.588379
398,-6.068e-38,-0.342798,-0.122329,9.89589,2.82005,0.376888,-4.84912,3.99414,-0.584717
399,-6.07267e-38,-0.333673,-0.124744,9.86376,2.86931,0.353425,-7.68335,3.99561,-0.587402
400,-6.07735e-38,-0.331408,-0.140494,9.88028,2.99151,0.438874,2.65234,3.99438,-0.582031
401,-6.08202e-38,-0.350586,-0.10327,9.87434,2.83327,0.498863,-4.37769,3.99438,-0.589844
402,-6.08669e-38,-0.376853,-0.127205,9.88992,2.86308,0.342257,1.02686,3.9939,-0.585693
403,-6.09136e-38,-0.371808,-0.113156,9.86417,2.93959,0.481855,1.60327,3.99463,-0.587402
404,-6.09603e-38,-0.366413,-0.120357,9.8663,2.91618,0.416718,-2.59473,3.99487,-0.588379
405,-6.1007e-38,-0.3577,-0.115833,9.86275,2.92753,0.454294,6.1167,3.99268,-0.5896
406,-6.10537e-38,-0.338961,-0.115975,9.87133,2.79408,0.519662,7.06006,3.99341,-0.591553
407,-6.11004e-38,-0.33605,-0.112661,9.86968,2.81708,0.514974,-1.80957,3.99683,-0.584229
408,-6.11471e-38,-0.352621,-0.100734,9.87177,2.96405,0.490589,7.0083,3.99341,-0.590576
409,-6.11938e-38,-0.369208,-0.11247,9.85571,3.0409,0.523504,-5.95728,3.99902,-0.588867
410,-6.12405e-38,-0.375968,-0.109589,9.86337,2.86244,0.445944,2.33765,3.99438,-0.586426
411,-6.12872e-38,-0.334631,-0.107805,9.86644,2.99085,0.496558,-4.79614,3.99365,-0.5896
412,-6.13339e-38,-0.337743,-0.138474,9.8782,2.8971,0.465821,-3.58838,3.99316,-0.585693
413,-6.13807e-38,-0.355515,-0.115388,9.84669,2.86283,0.457035,4.17236,3.99536,-0.589355
414,-6.14274e-38,-0.363657,-0.111914,9.84855,2.99774,0.426708,-0.654785,3.99585,-0.58374
415,-6.14741e-38,-0.360497,-0.114971,9.8723,2.89702,0.449888,1.65308,3.99585,-0.587891
416,-6.15208e-38,-0.356877,-0.123337,9.86724,2.81708,0.494457,-1.02197,3.99585,-0.585693
417,-6.15675e-38,-0.349254,-0.114768,9.85544,2.96352,0.415309,-5.42627,3.99414,-0.590088
418,-6.16142e-38,-0.367291,-0.129797,9.87169,2.92302,0.298585,6.06445,3.99292,-0.591064
419,-6.16609e-38,-0.35731,-0.0929421,9.88278,2.84861,0.416897,5.38135,3.99365,-0.586426
420,-6.17076e-38,-0.364211,-0.0956906,9.88207,2.91357,0.466487,-3.17139,3.99487,-0.588867
421,-6.17543e-38,-0.354637,-0.118368,9.87412,2.94897,0.419433,-1.07251,3.99463,-0.585205
422,-6.1801e-38,-0.347982,-0.128372,9.88248,2.87738,0.4629,-4.21997,3.99463,-0.588379
423,-6.18477e-38,-0.33832,-0.12419,9.89946,2.80809,0.524836,7.89722,3.99536,-0.588867
424,-6.18944e-38,-0.328315,-0.121784,9.85531,2.88158,0.417794,3.54419,3.99463,-0.586914
425,-6.19412e-38,-0.336749,-0.107092,9.89797,2.9276,0.368691,-3.3833,3.99609,-0.588867
426,-6.19879e-38,-0.354297,-0.114859,9.87196,2.80858,0.425555,-1.12842,3.99683,-0.584717
427,-6.20346e-38,-0.351355,-0.118979,9.84937,2.84628,0.48206,5.11841,3.9939,-0.588867
428,-6.20813e-38,-0.348308,-0.109811,9.91,2.94144,0.48288,-6.94409,3.99146,-0.588379
429,-6.2128e-38,-0.357408,-0.126343,9.87274,2.79825,0.62071,2.65308,3.99414,-0.583008
430,-6.21747e-38,-0.369175,-0.103032,9.87833,2.8668,0.44264,6.79614,3.99487,-0.590088
431,-6.22214e-38,-0.358304,-0.102947,9.85323,2.84308,0.51979,-5.53296,3.99536,-0.586914
432,-6.22681e-38,-0.338235,-0.12619,9.90157,2.85025,0.517869,-0.237305,3.99756,-0.590576
433,-6.23148e-38,-0.341208,-0.121819,9.91085,2.83826,0.482009,-2.85547,3.99414,-0.586914
434,-6.23615e-38,-0.352534,-0.131882,9.85744,2.90399,0.560567,-5.42627,3.99414,-0.587891
435,-6.24082e-38,-0.353587,-0.138705,9.87819,2.79935,0.483341,2.60132,3.99341,-0.588379
436,-6.24549e-38,-0.363521,-0.117686,9.88233,2.95506,0.363953,5.06982,3.99121,-0.58374
437,-6.25017e-38,-0.370474,-0.109942,9.86668,2.89541,0.447711,-3.27686,3.99536,-0.592529
438,-6.25484e-38,-0.357952,-0.0955788,9.88927,2.87059,0.395689,5.22021,3.99634,-0.584717
439,-6.25951e-38,-0.360383,-0.126783,9.87918,2.91833,0.438516,0.920166,3.99512,-0.589355
440,-6.26418e-38,-0.352465,-0.134365,9.86113,2.90857,0.409981,-0.385986,3.99121,-0.587402
441,-6.26885e-38,-0.338015,-0.125096,9.86794,2.87046,0.403988,7.89795,3.99463,-0.588379
442,-6.27352e-38,-0.339891,-0.132323,9.86639,2.92356,0.440565,-1.49292,3.99512,-0.588867
443,-6.27819e-38,-0.353358,-0.126199,9.8677,2.94474,0.505369,4.27979,3.99365,-0.583252
444,-6.28286e-38,-0.361308,-0.11404,9.88474,2.89241,0.545353,4.43604,3.99438,-0.589844
445,-6.28753e-38,-0.350405,-0.12439,9.87472,2.88898,0.41157,3.49048,3.99536,-0.585693
446,-6.2922e-38,-0.336548,-0.121457,9.87715,2.87868,0.442409,0.293213,3.99341,-0.588867
447,-6.29687e-38,-0.356674,-0.105986,9.84481,2.95724,0.411237,5.69482,3.99438,-0.587402
448,-6.30154e-38,-0.35132,-0.132627,9.83412,2.78952,0.489975,6.00659,3.99634,-0.586182
449,-6.30621e-38,-0.340975,-0.114964,9.87278,2.81987,0.449914,-1.75317,3.99341,-0.588379
450,-6.31089e-38,-0.33902,-0.113228,9.89195,2.97338,0.49602,-0.392334,3.99585,-0.584229
451,-6.31556e-38,-0.353876,-0.11479,9.86117,2.89707,0.35947,-1.70068,3.99341,-0.587891
452,-6.32023e-38,-0.351019,-0.123437,9.87496,2.95588,0.45163,-1.28418,3.99609,-0.587402
453,-6.3249e-38,-0.355268,-0.11582,9.87987,2.83911,0.517536,-7.47559,3.99707,-0.585693
454,-6.32957e-38,-0.360552,-0.121828,9.87249,2.88176,0.380423,6.00977,3.99414,-0.588379
455,-6.33424e-38,-0.352878,-0.0996131,9.90274,2.87474,0.373148,1.49829,3.99438,-0.584717
456,-6.33891e-38,-0.352569,-0.11728,9.90706,2.90145,0.447225,-7.52734,3.99634,-0.592285
457,-6.34358e-38,-0.356789,-0.111538,9.86382,3.01382,0.468126,-4.00659,3.99194,-0.586914
458,-6.34825e-38,-0.350277,-0.122484,9.867,2.87136,0.507392,-5.32251,3.99487,-0.587891
459,-6.35292e-38,-0.350795,-0.116128,9.86847,2.90291,0.450836,4.33105,3.99438,-0.586182
460,-6.35759e-38,-0.347888,-0.0970782,9.86938,2.97491,0.444176,-5.26489,3.99146,-0.585693
461,-6.36226e-38,-0.349874,-0.12684,9.84814,2.92399,0.411928,7.84668,3.9939,-0.588867
462,-6.36694e-38,-0.349192,-0.113132,9.88739,2.94461,0.426195,6.58716,3.99414,-0.587402
463,-6.37161e-38,-0.35606,-0.128343,9.88934,2.92369,0.563795,7.95142,3.9939,-0.588379
464,-6.37628e-38,-0.357042,-0.126137,9.88793,2.86815,0.461415,1.39526,3.99341,-0.587891
465,-6.38095e-38,-0.34226,-0.113023,9.89579,2.8586,0.508519,-0.12915,3.99536,-0.587891
466,-6.38562e-38,-0.355166,-0.104813,9.88916,2.89917,0.527346,-0.759521,3.99585,-0.590576
467,-6.39029e-38,-0.354959,-0.0973047,9.87736,2.96216,0.394049,3.80957,3.99219,-0.586914
468,-6.39496e-38,-0.344722,-0.123907,9.88009,2.87914,0.431626,4.49243,3.99146,-0.591553
469,-6.39963e-38,-0.337767,-0.109062,9.86317,2.88327,0.411903,5.17139,3.99414,-0.590576
470,-6.4043e-38,-0.341826,-0.117883,9.86201,2.87502,0.514897,2.49097,3.99731,-0.585693
471,-6.40897e-38,-0.351182,-0.12408,9.86028,2.8033,0.443767,-6.42188,3.99316,-0.587402
472,-6.41364e-38,-0.356846,-0.121991,9.8849,2.91915,0.473991,-2.8064,3.99658,-0.58374
473,-6.41831e-38,-0.359236,-0.123168,9.86548,2.84656,0.437568,2.13086,3.99219,-0.590088
474,-6.42298e-38,-0.354243,-0.119036,9.90672,2.94748,0.347585,-1.81006,3.99683,-0.586426
475,-6.42766e-38,-0.363721,-0.109242,9.87183,2.95586,0.452271,-4.42847,3.99365,-0.588379
476,-6.43233e-38,-0.349665,-0.104538,9.87393,2.91078,0.441205,-4.37598,3.99341,-0.587891
477,-6.437e-38,-0.329044,-0.110538,9.86524,2.90171,0.429525,-1.17676,3.99365,-0.587891
478,-6.44167e-38,-0.345675,-0.121658,9.89057,2.8711,0.485979,5.48267,3.99634,-0.5896
479,-6.44634e-38,-0.363339,-0.110623,9.87578,2.83165,0.408342,2.59814,3.99609,-0.584229
480,-6.45101e-38,-0.362151,-0.137824,9.87112,2.93926,0.472992,-6.89575,3.99414,-0.587891
481,-6.45568e-38,-0.358539,-0.117032,9.86221,2.83253,0.430626,-1.43921,3.99414,-0.588379
482,-6.46035e-38,-0.353519,-0.111475,9.8639,2.98554,0.429166,4.22437,3.99536,-0.588379
483,-6.46502e-38,-0.363976,-0.110503,9.8682,2.81857,0.333984,0.708496,3.99683,-0.587402
484,-6.46969e-38,-0.342822,-0.119505,9.88262,2.90878,0.397866,1.23706,3.99341,-0.584717
485,-6.47436e-38,-0.346332,-0.114622,9.86562,2.90422,0.482419,2.12842,3.9939,-0.587402
486,-6.47903e-38,-0.358225,-0.117185,9.88931,2.87225,0.496173,-6.74072,3.99683,-0.584717
487,-6.48371e-38,-0.35275,-0.0974856,9.87685,2.90919,0.478192,5.85327,3.99365,-0.588867
488,-6.48838e-38,-0.350269,-0.118669,9.85611,2.78204,0.537976,-7.15405,3.9917,-0.588379
489,-6.49305e-38,-0.331227,-0.142414,9.87172,2.8993,0.480164,0.449707,3.99414,-0.586426
490,-6.49772e-38,-0.366686,-0.11401,9.8922,2.84085,0.33091,-3.74951,3.99561,-0.588867
491,-6.50239e-38,-0.358757,-0.134197,9.8807,2.83209,0.44994,2.02051,3.99609,-0.584229
492,-6.50706e-38,-0.353628,-0.114107,9.87933,2.95852,0.438362,1.23755,3.99316,-0.588867
493,-6.51173e-38,-0.341603,-0.115926,9.86779,2.97589,0.479166,0.183838,3.99683,-0.588379
494,-6.5164e-38,-0.358956,-0.124522,9.91148,2.83437,0.423916,-4.85083,3.99512,-0.587891
495,-6.52107e-38,-0.346142,-0.114835,9.875,2.89426,0.501783,-3.48608,3.99487,-0.585693
496,-6.52574e-38,-0.355623,-0.103483,9.88458,2.81237,0.394229,-1.33276,3.99268,-0.586426
497,-6.53041e-38,-0.358029,-0.13438,9.90522,2.79923,0.417461,-0.859863,3.99243,-0.590576
498,-6.53508e-38,-0.357412,-0.121787,9.90157,2.79113,0.448582,-1.59521,3.99316,-0.58252
499,-6.53976e-38,-0.347462,-0.120885,9.90249,2.85834,0.466,7.1123,3.99341,-0.587402
500,-6.54443e-38,-0.327814,-0.0997373,9.87114,2.78826,0.404141,-2.01538,3.99316,-0.587891
501,-6.5491e-38,-0.353389,-0.0995565,9.88088,2.84748,0.385571,2.91357,3.99487,-0.585205
502,-6.55377e-38,-0.351367,-0.115192,9.88714,2.86129,0.478218,7.32251,3.99316,-0.5896
503,-6.55844e-38,-0.339253,-0.108982,9.89634,2.91797,0.410263,-4.32764,3.99609,-0.586426
504,-6.56311e-38,-0.353137,-0.127861,9.87678,2.91982,0.531598,-4.58936,3.99585,-0.591553
505,-6.56778e-38,-0.330609,-0.119854,9.8652,2.85796,0.349096,-3.80249,3.99585,-0.588379
506,-6.57245e-38,-0.36209,-0.128012,9.85796,2.92771,0.51669,5.53687,3.99512,-0.588867
507,-6.57712e-38,-0.330607,-0.123294,9.88102,2.88893,0.457009,-1.96533,3.99512,-0.586426
508,-6.58179e-38,-0.343817,-0.123851,9.85936,2.92228,0.445227,-7.83838,3.99341,-0.585693
509,-6.58646e-38,-0.334357,-0.0968755,9.86584,2.91618,0.377067,-7.36572,3.99316,-0.587891
510,-6.59113e-38,-0.348327,-0.109697,9.86563,2.82082,0.449581,2.02173,3.99561,-0.58252
511,-6.5958e-38,-0.342824,-0.117364,9.859,2.82653,0.417025,2.22998,3.99634,-0.588867
512,-6.60048e-38,-0.352866,-0.120247,9.88104,2.84146,0.398096,-4.74365,3.9939,-0.587402
513,-6.60515e-38,-0.361681,-0.0981597,9.8713,2.97228,0.423608,6.95483,3.9939,-0.588379
514,-6.60982e-38,-0.343792,-0.0991245,9.8935,2.84961,0.416667,-2.48755,3.99365,-0.592041
515,-6.61449e-38,-0.345668,-0.108721,9.88157,2.8838,0.421764,-0.125732,3.99243,-0.584229
516,-6.61916e-38,-0.362949,-0.125556,9.86155,3.00967,0.497275,6.37451,3.99585,-0.591553
517,-6.62383e-38,-0.356021,-0.120078,9.89714,2.99062,0.441718,7.47632,3.99658,-0.584229
518,-6.6285e-38,-0.355092,-0.102738,9.86241,2.97053,0.427322,-7.1582,3.99536,-0.585205
519,-6.63317e-38,-0.344379,-0.121867,9.86607,2.80806,0.511337,-0.649658,3.99194,-0.589355
520,-6.63784e-38,-0.337228,-0.112265,9.87063,2.86208,0.539769,-5.32031,3.99365,-0.585205
521,-6.64251e-38,-0.336724,-0.094649,9.88079,2.90514,0.557648,-0.335938,3.99292,-0.588379
522,-6.64718e-38,-0.360995,-0.0922137,9.86572,2.94694,0.435365,5.0647,3.99487,-0.584717
523,-6.65185e-38,-0.356105,-0.115529,9.86459,2.96172,0.487951,-1.54688,3.99585,-0.588379
524,-6.65653e-38,-0.366354,-0.139424,9.86712,2.81882,0.399966,1.92114,3.99219,-0.586914
525,-6.6612e-38,-0.367533,-0.133038,9.8854,2.92125,0.381089,-3.16895,3.99292,-0.587891
526,-6.66587e-38,-0.36319,-0.0952635,9.87788,2.94456,0.468536,6.68701,3.99805,-0.588379
527,-6.67054e-38,-0.352008,-0.110529,9.88261,3.00842,0.446712,7.427,3.99365,-0.586426
528,-6.67521e-38,-0.358963,-0.127506,9.87614,2.87364,0.404756,-5.42871,3.99585,-0.591064
529,-6.67988e-38,-0.333325,-0.121031,9.91185,2.90601,0.421303,4.17114,3.99658,-0.585693
530,-6.68455e-38,-0.339813,-0.118269,9.87641,2.88642,0.50314,2.85742,3.9978,-0.586426
531,-6.68922e-38,-0.350178,-0.111629,9.85505,2.86946,0.341463,7.42871,3.99292,-0.587402
532,-6.69389e-38,-0.353931,-0.111402,9.86907,2.82466,0.515077,0.44873,3.99487,-0.583252
533,-6.69856e-38,-0.360852,-0.115465,9.89532,2.90652,0.467076,4.49365,3.99048,-0.586914
534,-6.70323e-38,-0.340863,-0.113376,9.88308,2.90181,0.499093,7.63623,3.99414,-0.584229
535,-6.7079e-38,-0.355506,-0.11191,9.89477,2.85355,0.401349,1.76123,3.99414,-0.588867
536,-6.71258e-38,-0.350867,-0.0965345,9.82274,2.83849,0.438106,6.85059,3.99341,-0.5896
537,-6.71725e-38,-0.362776,-0.1183,9.82668,2.87927,0.516024,5.27686,3.99292,-0.587891
538,-6.72192e-38,-0.343445,-0.108846,9.84653,2.93311,0.510697,5.79712,3.99658,-0.590088
539,-6.72659e-38,-0.345772,-0.10483,9.87671,2.85496,0.377887,7.11401,3.99219,-0.586182
540,-6.73126e-38,-0.354254,-0.119044,9.9072,2.88229,0.469125,-6.63159,3.99365,-0.587891
541,-6.73593e-38,-0.349289,-0.123186,9.88296,2.83672,0.422046,1.81152,3.99536,-0.587402
542,-6.7406e-38,-0.341864,-0.119813,9.86831,2.83655,0.423813,-0.231201,3.99292,-0.587402
543,-6.74527e-38,-0.359106,-0.109608,9.88352,2.89093,0.420791,0.293213,3.99341,-0.586182
544,-6.74994e-38,-0.354919,-0.115512,9.8352,2.88234,0.442025,-5.32471,3.99658,-0.58374
545,-6.75461e-38,-0.371155,-0.114704,9.87527,2.86201,0.431754,-5.68726,3.99341,-0.588867
546,-6.75928e-38,-0.369645,-0.123277,9.87083,2.83747,0.395125,-1.64844,3.99414,-0.584229
547,-6.76395e-38,-0.350263,-0.122764,9.86835,2.87351,0.403527,-6.0022,3.99316,-0.589355
548,-6.76862e-38,-0.367159,-0.0984801,9.87836,2.87638,0.518355,4.28247,3.9917,-0.588379
549,-6.7733e-38,-0.352766,-0.121348,9.87006,2.89446,0.437927,2.65771,3.99048,-0.586426
550,-6.77797e-38,-0.351085,-0.141539,9.86468,2.81495,0.45286,6.85522,3.98975,-0.588379
551,-6.78264e-38,-0.360768,-0.114113,9.85328,2.89397,0.46851,-1.44092,3.99536,-0.584229
552,-6.78731e-38,-0.353568,-0.124722,9.87586,2.86908,0.279323,7.89893,3.99438,-0.588867
553,-6.79198e-38,-0.321057,-0.125566,9.86833,2.85901,0.393486,3.33276,3.99512,-0.585938
554,-6.79665e-38,-0.361116,-0.114736,9.86225,2.893,0.371202,-1.43848,3.99365,-0.586426
555,-6.80132e-38,-0.36596,-0.113133,9.86469,2.83411,0.493971,6.37354,3.99707,-0.588867
556,-6.80599e-38,-0.35557,-0.0991685,9.85691,2.85486,0.418204,-0.967529,3.99438,-0.588379
557,-6.81066e-38,-0.350734,-0.113087,9.88027,2.82082,0.293411,1.07861,3.99463,-0.589355
558,-6.81533e-38,-0.36001,-0.11456,9.8909,2.87681,0.349532,3.75464,3.9939,-0.583252
559,-6.82e-38,-0.351239,-0.134671,9.85932,2.94415,0.396432,4.17236,3.99536,-0.587158
560,-6.82467e-38,-0.356186,-0.1182,9.83559,2.90371,0.366053,-4.85107,3.99561,-0.585693
561,-6.82935e-38,-0.36051,-0.115101,9.89989,2.98047,0.542612,5.64185,3.99487,-0.585205
562,-6.83402e-38,-0.353373,-0.101371,9.84878,2.93362,0.401836,1.02563,3.99487,-0.587891
563,-6.83869e-38,-0.354347,-0.107057,9.86255,2.98183,0.424505,-2.54126,3.99463,-0.585205
564,-6.84336e-38,-0.350964,-0.103157,9.85524,2.96836,0.44725,3.28418,3.99268,-0.587891
565,-6.84803e-38,-0.349951,-0.136409,9.85884,2.89828,0.511132,-0.654785,3.99609,-0.586426
566,-6.8527e-38,-0.349317,-0.0976513,9.89191,2.87113,0.459468,-1.44214,3.99634,-0.587891
567,-6.85737e-38,-0.361636,-0.108915,9.85968,2.87097,0.489053,6.00854,3.99512,-0.585693
568,-6.86204e-38,-0.359485,-0.123794,9.86074,2.82423,0.156734,-2.48267,3.9895,-0.586426
569,-6.86671e-38,-0.36008,-0.126238,9.88123,2.93521,0.34925,-7.68262,3.99487,-0.588379
570,-6.87138e-38,-0.358608,-0.106107,9.88493,2.76762,0.509979,0.393799,3.99683,-0.585938
571,-6.87605e-38,-0.35024,-0.112846,9.89347,2.87771,0.40053,-3.43457,3.99536,-0.588867
572,-6.88072e-38,-0.363102,-0.112062,9.87146,2.87428,0.406831,5.69189,3.99658,-0.586426
573,-6.88539e-38,-0.351561,-0.132987,9.88556,2.8199,0.40181,7.4812,3.99292,-0.585693
574,-6.89007e-38,-0.347854,-0.107377,9.8671,2.94054,0.29359,-5.31982,3.99341,-0.588867
575,-6.89474e-38,-0.343516,-0.100087,9.85139,2.81085,0.608133,-1.12036,3.99072,-0.586426
576,-6.89941e-38,-0.33666,-0.105722,9.85586,2.98721,0.399941,-6.94604,3.99316,-0.590576
577,-6.90408e-38,-0.353636,-0.112799,9.85277,2.94728,0.414771,-0.440674,3.99268,-0.586914
578,-6.90875e-38,-0.368421,-0.09809,9.9009,2.87097,0.407676,-2.96191,3.99487,-0.587402
579,-6.91342e-38,-0.337466,-0.119153,9.86632,2.90652,0.440129,5.37476,3.99805,-0.590088
580,-6.91809e-38,-0.346692,-0.134577,9.83526,2.9139,0.403527,0.445068,3.9978,-0.585693
581,-6.92276e-38,-0.374966,-0.12888,9.86842,2.86797,0.37635,-6.36987,3.99365,-0.588379
582,-6.92743e-38,-0.352782,-0.130386,9.876,2.84794,0.467178,7.79248,3.99487,-0.58374
583,-6.9321e-38,-0.353989,-0.125295,9.88713,2.89492,0.480369,3.49023,3.99585,-0.58667
584,-6.93677e-38,-0.352161,-0.129458,9.88557,2.85089,0.435852,1.55078,3.99463,-0.5896
585,-6.94144e-38,-0.345376,-0.11478,9.87928,2.79272,0.546608,-6.53271,3.99829,-0.586914
586,-6.94612e-38,-0.363116,-0.119746,9.89263,2.86926,0.440386,-2.43701,3.99512,-0.591064
587,-6.95079e-38,-0.355017,-0.119077,9.89184,2.74738,0.454243,-7.73633,3.99585,-0.585205
588,-6.95546e-38,-0.352665,-0.115501,9.86937,2.86513,0.568406,-7.36719,3.99438,-0.589355
589,-6.96013e-38,-0.364675,-0.105094,9.85623,2.86106,0.403527,-2.43872,3.99609,-0.587891
590,-6.9648e-38,-0.346493,-0.107759,9.86407,2.70602,0.503576,-0.338623,3.99438,-0.585693
591,-6.96947e-38,-0.358944,-0.121784,9.89116,2.88432,0.492536,-3.80005,3.99438,-0.587891
592,-6.97414e-38,-0.359557,-0.117993,9.88942,2.92407,0.367949,0.44873,3.99487,-0.58374
593,-6.97881e-38,-0.334568,-0.126084,9.89504,2.91288,0.41221,7.58716,3.99194,-0.587402
594,-6.98348e-38,-0.350812,-0.132962,9.87873,2.90084,0.459135,-4.84839,3.99341,-0.585693
595,-6.98815e-38,-0.356533,-0.117146,9.86811,2.80632,0.437184,0.60791,3.99365,-0.58667
596,-6.99282e-38,-0.34593,-0.0990147,9.8704,2.75909,0.487132,-4.00928,3.99341,-0.588379
597,-6.99749e-38,-0.340017,-0.125755,9.86716,2.94541,0.491998,-4.74634,3.99585,-0.585938
598,-7.00217e-38,-0.346104,-0.130881,9.87144,2.86774,0.351709,-4.22217,3.99609,-0.588867
599,-7.00684e-38,-0.341222,-0.11714,9.86722,2.86792,0.371688,2.7063,3.99341,-0.585693
600,-7.01151e-38,-0.35368,-0.115572,9.87149,2.72648,0.472224,0.921387,3.99414,-0.591064
601,-7.01618e-38,-0.34003,-0.121835,9.88583,2.81462,0.3607,1.39233,3.99536,-0.5896
602,-7.02085e-38,-0.351329,-0.12863,9.88095,2.88596,0.446072,-5.31982,3.99316,-0.586182
603,-7.02552e-38,-0.354465,-0.121408,9.86877,2.8932,0.388184,-4.74561,3.99536,-0.590088
604,-7.03019e-38,-0.370369,-0.110279,9.86292,2.86508,0.415745,7.37451,3.9939,-0.585693
605,-7.03486e-38,-0.362323,-0.119562,9.86855,2.86331,0.460262,5.38013,3.99463,-0.589355
606,-7.03953e-38,-0.361696,-0.102902,9.88046,2.92018,0.353989,7.84351,3.99609,-0.58252
607,-7.0442e-38,-0.357651,-0.112313,9.88988,2.8178,0.519098,-5.79541,3.99585,-0.587891
608,-7.04887e-38,-0.354568,-0.112442,9.87596,2.79802,0.547402,2.8623,3.99438,-0.587402
609,-7.05354e-38,-0.349338,-0.11607,9.88002,3.03472,0.494688,4.06616,3.99634,-0.588379
610,-7.05821e-38,-0.339744,-0.122985,9.89463,3.0306,0.469509,0.501221,3.99463,-0.586914
611,-7.06289e-38,-0.331557,-0.14078,9.87422,2.95955,0.433495,4.85449,3.99487,-0.58374
612,-7.06756e-38,-0.358203,-0.129957,9.8891,2.9046,0.567355,-6.73779,3.99438,-0.590576
613,-7.07223e-38,-0.349723,-0.109186,9.84129,3.00409,0.499862,-4.48145,3.99365,-0.586426
614,-7.0769e-38,-0.34476,-0.125358,9.84694,2.88119,0.410904,-2.17236,3.99292,-0.586914
615,-7.08157e-38,-0.359315,-0.113105,9.8825,2.80058,0.406626,0.0332031,3.9917,-0.588867
616,-7.08624e-38,-0.331293,-0.0998652,9.86354,2.94922,0.437978,-7.83594,3.9917,-0.585205
617,-7.09091e-38,-0.350976,-0.119471,9.86962,2.91083,0.433137,7.68774,3.99414,-0.5896
618,-7.09558e-38,-0.360246,-0.119525,9.87634,2.85834,0.510261,-5.15894,3.99048,-0.582031
619,-7.10025e-38,-0.371764,-0.114156,9.87393,2.75845,0.456292,3.96021,3.99707,-0.589844
620,-7.10492e-38,-0.371473,-0.126952,9.90507,2.92474,0.416949,6.27246,3.99414,-0.591064
621,-7.10959e-38,-0.357323,-0.107684,9.8558,2.98621,0.405678,-5.63745,3.99536,-0.586914
622,-7.11426e-38,-0.358894,-0.108077,9.85899,3.00634,0.430268,-0.234863,3.99561,-0.590576
623,-7.11894e-38,-0.347304,-0.135007,9.87916,2.84392,0.446431,-6.42407,3.99512,-0.586426
624,-7.12361e-38,-0.340418,-0.108753,9.84485,2.94838,0.508852,-5.63794,3.99585,-0.588867
625,-7.12828e-38,-0.341779,-0.101314,9.863,2.84751,0.40888,7.63501,3.99536,-0.585938
626,-7.13295e-38,-0.34303,-0.117983,9.87818,2.92658,0.474248,-1.80688,3.99463,-0.588379
627,-7.13762e-38,-0.35993,-0.099854,9.87602,2.94712,0.451579,3.54224,3.99609,-0.590088
628,-7.14229e-38,-0.347139,-0.1199,9.89437,2.93724,0.455933,7.63623,3.99414,-0.584717
629,-7.14696e-38,-0.352175,-0.111428,9.88557,2.86162,0.459366,-4.27515,3.99609,-0.589355
630,-7.15163e-38,-0.364018,-0.101626,9.87053,2.89482,0.479447,-0.445557,3.99634,-0.58374
631,-7.1563e-38,-0.362245,-0.105921,9.86915,2.97307,0.414361,-0.237549,3.9978,-0.588379
632,-7.16097e-38,-0.342833,-0.119862,9.85752,2.97789,0.449376,6.63794,3.99536,-0.586914
633,-7.16564e-38,-0.35722,-0.115724,9.86874,3.00445,0.367974,5.53687,3.99512,-0.586914
634,-7.17031e-38,-0.364041,-0.111958,9.87643,2.87412,0.461159,2.17749,3.99609,-0.590576
635,-7.17499e-38,-0.337691,-0.111104,9.88174,2.81372,0.356986,-0.80957,3.99365,-0.585693
636,-7.17966e-38,-0.333593,-0.0987682,9.88714,2.88539,0.545532,0.287109,3.9978,-0.589355
637,-7.18433e-38,-0.349856,-0.107624,9.86392,2.93521,0.409495,-6.00146,3.99292,-0.589111
638,-7.189e-38,-0.343555,-0.101531,9.87499,2.82551,0.51979,-5.896,3.99243,-0.587402
639,-7.19367e-38,-0.350959,-0.108542,9.8932,2.86024,0.377861,-0.810303,3.99438,-0.587891
640,-7.19834e-38,-0.371115,-0.123402,9.86013,2.9348,0.412978,-0.443115,3.99438,-0.586426
641,-7.20301e-38,-0.353865,-0.132742,9.86432,2.8993,0.461108,4.22949,3.99194,-0.590576
642,-7.20768e-38,-0.361647,-0.0855031,9.88261,2.79392,0.434315,-4.3772,3.99463,-0.584229
643,-7.21235e-38,-0.345721,-0.126667,9.85569,2.85491,0.471353,0.237793,3.99536,-0.589844
644,-7.21702e-38,-0.342477,-0.095661,9.89204,2.85916,0.389874,2.91895,3.99121,-0.591064
645,-7.22169e-38,-0.348057,-0.126877,9.9076,2.97717,0.406395,-1.07373,3.99561,-0.586914
646,-7.22636e-38,-0.33353,-0.104179,9.89324,2.88411,0.373635,-5.3772,3.99658,-0.589355
647,-7.23103e-38,-0.336862,-0.129727,9.88833,2.95186,0.378911,4.90894,3.99316,-0.586182
648,-7.23571e-38,-0.344491,-0.109027,9.86646,3.04292,0.521224,-2.43359,3.99243,-0.591553
649,-7.24038e-38,-0.353457,-0.121242,9.86344,2.85688,0.493766,-6.89478,3.9939,-0.586914
650,-7.24505e-38,-0.342842,-0.120442,9.87985,2.85916,0.541818,-1.23291,3.99683,-0.584717
651,-7.24972e-38,-0.352946,-0.103673,9.88377,2.86764,0.460621,-1.12427,3.99365,-0.591064
652,-7.25439e-38,-0.361695,-0.111236,9.86413,2.88122,0.418332,7.58252,3.99536,-0.583252
653,-7.25906e-38,-0.366525,-0.110833,9.86137,2.80243,0.421738,3.54443,3.99463,-0.590576
654,-7.26373e-38,-0.350448,-0.121599,9.8812,2.85571,0.312827,-0.54541,3.99268,-0.584717
655,-7.2684e-38,-0.356912,-0.134511,9.89931,3.02827,0.428449,4.48633,3.99609,-0.586182
656,-7.27307e-38,-0.331712,-0.0976872,9.87344,2.81121,0.306859,4.48584,3.99658,-0.588379
657,-7.27774e-38,-0.358974,-0.11372,9.85968,2.88386,0.504754,-7.78613,3.9939,-0.586426
658,-7.28241e-38,-0.348071,-0.103109,9.86953,2.89561,0.404474,0.499512,3.99561,-0.588379
659,-7.28708e-38,-0.350725,-0.107642,9.87778,2.82725,0.355807,7.4812,3.99219,-0.585205
660,-7.29176e-38,-0.352446,-0.126221,9.86527,2.78017,0.416283,4.38428,3.99365,-0.590576
661,-7.29643e-38,-0.328877,-0.124752,9.85887,2.88427,0.457931,4.43457,3.99536,-0.587891
662,-7.3011e-38,-0.325531,-0.115107,9.86695,2.85466,0.524323,-3.90454,3.9939,-0.588379
663,-7.30577e-38,-0.346838,-0.115892,9.88327,2.96728,0.464232,-7.62598,3.9917,-0.5896
664,-7.31044e-38,-0.355091,-0.0923615,9.87759,2.75922,0.47499,7.58398,3.99365,-0.58374
665,-7.31511e-38,-0.344441,-0.104919,9.91507,2.89146,0.514616,6.01172,3.99292,-0.590088
666,-7.31978e-38,-0.335071,-0.112288,9.84805,2.95445,0.481138,4.79761,3.99854,-0.584717
667,-7.32445e-38,-0.348163,-0.123211,9.88093,2.95404,0.5223,5.90405,3.99512,-0.587402
668,-7.32912e-38,-0.331916,-0.119134,9.87755,2.92312,0.35696,3.02271,3.99219,-0.585205
669,-7.33379e-38,-0.357258,-0.110828,9.86833,2.75135,0.400222,3.59692,3.9939,-0.587891
670,-7.33846e-38,-0.353045,-0.105804,9.8548,2.82822,0.441666,6.32764,3.9917,-0.591553
671,-7.34313e-38,-0.361733,-0.115692,9.90838,2.91462,0.525809,-3.58862,3.99316,-0.586914
672,-7.3478e-38,-0.359509,-0.116018,9.85446,2.96208,0.467537,-7.3147,3.99414,-0.590088
673,-7.35248e-38,-0.352606,-0.119066,9.86063,2.86603,0.431318,0.344971,3.9939,-0.585938
674,-7.35715e-38,-0.356682,-0.139109,9.87535,2.94292,0.577985,-0.0776367,3.99561,-0.584229
675,-7.36182e-38,-0.357579,-0.11939,9.88804,2.97353,0.486594,-4.47974,3.99268,-0.588379
676,-7.36649e-38,-0.361269,-0.116297,9.90174,2.93685,0.371406,1.23242,3.99707,-0.587402
677,-7.37116e-38,-0.349962,-0.110205,9.86903,2.80617,0.39469,7.79346,3.99438,-0.591064
678,-7.37583e-38,-0.348353,-0.11998,9.90948,2.94159,0.417153,3.27881,3.99658,-0.586426
679,-7.3805e-38,-0.336669,-0.127474,9.89036,2.90798,0.40222,-4.79492,3.99292,-0.588867
680,-7.38517e-38,-0.328281,-0.117478,9.8831,2.94062,0.40824,-7.79053,3.99707,-0.589355
681,-7.38984e-38,-0.35324,-0.122757,9.86069,2.93017,0.428449,7.0564,3.99585,-0.586914
682,-7.39451e-38,-0.351142,-0.120355,9.86901,2.79531,0.475375,5.17236,3.99292,-0.589355
683,-7.39918e-38,-0.353569,-0.123885,9.8751,2.97865,0.428321,0.240723,3.99365,-0.587402
684,-7.40385e-38,-0.344924,-0.125689,9.8867,2.87458,0.394254,-0.548584,3.99512,-0.589355
685,-7.40853e-38,-0.350109,-0.142843,9.89688,2.86672,0.535722,7.26904,3.99438,-0.586426
686,-7.4132e-38,-0.349809,-0.12576,9.86246,2.98951,0.432035,-7.47388,3.99561,-0.586426
687,-7.41787e-38,-0.339673,-0.10886,9.87234,2.94423,0.424121,-1.4375,3.99292,-0.588379
688,-7.42254e-38,-0.341377,-0.0884967,9.87325,2.83521,0.548836,5.54102,3.99194,-0.584229
689,-7.42721e-38,-0.349327,-0.103443,9.85019,2.98242,0.35737,4.54126,3.99414,-0.588379
690,-7.43188e-38,-0.340573,-0.122107,9.87072,2.85419,0.476527,-2.44165,3.99805,-0.584229
691,-7.43655e-38,-0.351624,-0.115766,9.8642,2.8494,0.424223,7.1123,3.99365,-0.588379
692,-7.44122e-38,-0.343987,-0.115086,9.87116,2.78673,0.335521,-5.74536,3.99756,-0.586914
693,-7.44589e-38,-0.346616,-0.129186,9.8805,2.90163,0.436338,1.13013,3.99487,-0.586914
694,-7.45056e-38,-0.348324,-0.115466,9.91784,2.88903,0.469048,5.22046,3.99585,-0.590088
695,-7.45523e-38,-0.324507,-0.11748,9.8743,2.79625,0.294487,2.75513,3.99585,-0.584717
696,-7.4599e-38,-0.352543,-0.114694,9.86464,2.94274,0.449504,2.49634,3.99316,-0.587402
697,-7.46458e-38,-0.347414,-0.103168,9.87979,2.93583,0.444586,5.58569,3.99756,-0.586914
698,-7.46925e-38,-0.339587,-0.121982,9.86025,2.8449,0.402348,-2.22876,3.99585,-0.585205
699,-7.47392e-38,-0.336766,-0.126064,9.8935,2.99008,0.608184,5.01221,3.99487,-0.584717
700,-7.47859e-38,-0.334924,-0.10435,9.87489,2.86237,0.334932,1.2373,3.99341,-0.584717
701,-7.48326e-38,-0.34009,-0.106347,9.87096,2.91021,0.518278,-0.65332,3.99487,-0.589355
702,-7.48793e-38,-0.340944,-0.122144,9.87525,2.94156,0.342821,6.43042,3.99341,-0.58374
703,-7.4926e-38,-0.3597,-0.0950793,9.8737,2.9534,0.406319,4.75635,3.99023,-0.588379
704,-7.49727e-38,-0.358633,-0.111766,9.87639,2.80699,0.307448,0.290039,3.99561,-0.587891
705,-7.50194e-38,-0.349413,-0.107468,9.87078,2.83506,0.461005,-4.53589,3.99536,-0.587891
706,-7.50661e-38,-0.360141,-0.115168,9.87623,2.91813,0.483008,7.63916,3.99194,-0.587402
707,-7.51128e-38,-0.364859,-0.127642,9.88904,2.87707,0.515025,-1.01831,3.99316,-0.585205
708,-7.51595e-38,-0.363934,-0.122154,9.91942,2.81365,0.440949,-1.80225,3.99072,-0.592041
709,-7.52062e-38,-0.352933,-0.117545,9.89072,2.79631,0.322637,5.58984,3.99463,-0.588379
710,-7.5253e-38,-0.337259,-0.116918,9.89021,2.86639,0.38073,-7.26074,3.99316,-0.588867
711,-7.52997e-38,-0.351579,-0.131212,9.87847,3.01231,0.543662,-2.38452,3.99487,-0.588379
712,-7.53464e-38,-0.344445,-0.125123,9.87624,2.91641,0.457009,-2.85254,3.99194,-0.587402
713,-7.53931e-38,-0.356457,-0.101185,9.87564,2.81721,0.513822,3.17456,3.99634,-0.590088
714,-7.54398e-38,-0.349052,-0.115974,9.87025,2.82118,0.46331,-2.69727,3.99341,-0.58374
715,-7.54865e-38,-0.358975,-0.0980498,9.87726,2.87412,0.526962,-6.84448,3.99561,-0.588379
716,-7.55332e-38,-0.339881,-0.107364,9.87809,2.8848,0.451297,7.37695,3.99194,-0.588379
717,-7.55799e-38,-0.370666,-0.130401,9.86499,2.91749,0.462593,-7.26514,3.99658,-0.587402
718,-7.56266e-38,-0.360072,-0.112304,9.84747,2.79613,0.448582,2.8645,3.99243,-0.5896
719,-7.56733e-38,-0.349437,-0.120202,9.86683,2.81488,0.403501,6.00879,3.99512,-0.586426
720,-7.572e-38,-0.346638,-0.121778,9.8572,2.99102,0.460518,7.95337,3.99219,-0.588379
721,-7.57667e-38,-0.364,-0.122835,9.8913,2.87049,0.425606,-0.286377,3.99512,-0.587891
722,-7.58135e-38,-0.352204,-0.108616,9.87497,2.86185,0.385725,5.49023,3.99072,-0.588867
723,-7.58602e-38,-0.355616,-0.108767,9.85324,2.92604,0.378373,-7.89062,3.99316,-0.587402
724,-7.59069e-38,-0.339821,-0.122469,9.86312,2.92248,0.517408,-7.62891,3.9939,-0.586914
725,-7.59536e-38,-0.355024,-0.106558,9.88418,2.82499,0.509723,7.16382,3.99414,-0.590576
726,-7.60003e-38,-0.358274,-0.140538,9.89824,2.896,0.416308,-6.26562,3.99414,-0.581543
727,-7.6047e-38,-0.349629,-0.107908,9.87016,2.89548,0.464156,4.22876,3.99243,-0.586914
728,-7.60937e-38,-0.341251,-0.106904,9.89061,2.93506,0.377938,3.4436,3.99097,-0.587891
729,-7.61404e-38,-0.348096,-0.120074,9.88076,2.83452,0.427886,-0.333984,3.99146,-0.586914
730,-7.61871e-38,-0.339656,-0.137705,9.88021,2.88888,0.432983,6.69019,3.99536,-0.5896
731,-7.62338e-38,-0.349653,-0.11666,9.89587,2.93557,0.477782,-4.89648,3.99048,-0.585693
732,-7.62805e-38,-0.336921,-0.105276,9.88421,2.92676,0.520379,1.7605,3.99463,-0.588379
733,-7.63272e-38,-0.347548,-0.123975,9.86067,2.90097,0.37571,-4.32568,3.99438,-0.586914
734,-7.6374e-38,-0.35036,-0.132142,9.882,2.94051,0.573042,-6.16089,3.99463,-0.5896
735,-7.64207e-38,-0.35931,-0.124852,9.89823,3.03711,0.446943,3.59473,3.99609,-0.586182
736,-7.64674e-38,-0.352455,-0.111238,9.87043,2.91052,0.563155,-1.70068,3.99365,-0.587402
737,-7.65141e-38,-0.356858,-0.114663,9.87478,2.90937,0.461441,-3.90869,3.99731,-0.588379
738,-7.65608e-38,-0.32646,-0.10154,9.88021,2.9283,0.527423,7.42578,3.99463,-0.585693
739,-7.66075e-38,-0.33739,-0.127269,9.88983,2.88947,0.461287,1.08008,3.99341,-0.585693
740,-7.66542e-38,-0.354856,-0.115167,9.88504,2.9286,0.434008,-6.11206,3.99756,-0.587402
741,-7.67009e-38,-0.360591,-0.11598,9.86549,2.81482,0.432701,-1.17676,3.99365,-0.587891
742,-7.67476e-38,-0.346561,-0.12228,9.86727,2.84438,0.477654,6.85278,3.9917,-0.589355
743,-7.67943e-38,-0.370249,-0.122367,9.88752,2.8097,0.465641,-2.698,3.99414,-0.585693
744,-7.6841e-38,-0.348734,-0.106254,9.87247,2.87335,0.403527,-7.25977,3.99243,-0.591553
745,-7.68877e-38,-0.361353,-0.093485,9.87908,2.82927,0.486337,0.0773926,3.9978,-0.587402
746,-7.69344e-38,-0.349039,-0.091675,9.87432,2.86977,0.436057,-5.79468,3.99512,-0.586426
747,-7.69812e-38,-0.355802,-0.118468,9.85358,2.94466,0.464565,1.5498,3.99512,-0.586914
748,-7.70279e-38,-0.336261,-0.121046,9.86396,2.84203,0.504344,-6.26587,3.99487,-0.585938
749,-7.70746e-38,-0.338711,-0.118553,9.88186,2.91669,0.427271,6.01001,3.99438,-0.588867
750,-7.71213e-38,-0.360829,-0.12075,9.87786,2.93216,0.401631,7.26782,3.99487,-0.585205
751,-7.7168e-38,-0.365864,-0.105364,9.86645,2.90081,0.365669,2.28833,3.99219,-0.585205
752,-7.72147e-38,-0.355722,-0.104108,9.88884,2.90624,0.440872,-5.90161,3.99707,-0.587891
753,-7.72614e-38,-0.343924,-0.118879,9.85104,2.91595,0.485928,0.867676,3.99512,-0.586914
754,-7.73081e-38,-0.347525,-0.119643,9.87583,3.03631,0.348302,3.33179,3.99634,-0.5896
755,-7.73548e-38,-0.349196,-0.120568,9.85257,2.89705,0.489078,0.818848,3.99243,-0.585693
756,-7.74015e-38,-0.359169,-0.109432,9.86749,2.867,0.509903,7.94922,3.99512,-0.588379
757,-7.74482e-38,-0.356075,-0.111895,9.87367,2.87866,0.441103,-2.59424,3.99487,-0.588867
758,-7.74949e-38,-0.340883,-0.124892,9.86812,2.98739,0.472762,3.75098,3.99683,-0.585693
759,-7.75417e-38,-0.357875,-0.115102,9.89701,2.72879,0.339645,3.28149,3.99438,-0.588379
760,-7.75884e-38,-0.366558,-0.13567,9.84717,2.80169,0.378015,2.44312,3.9939,-0.584229
761,-7.76351e-38,-0.342083,-0.117759,9.87006,2.85571,0.514308,5.80029,3.99414,-0.588379
762,-7.76818e-38,-0.344865,-0.106669,9.86578,2.8867,0.492613,-7,3.99438,-0.585205
763,-7.77285e-38,-0.357513,-0.102382,9.85204,2.88772,0.422609,0.605957,3.99487,-0.588867
764,-7.77752e-38,-0.342387,-0.118555,9.88433,2.91674,0.495123,-6.05688,3.99512,-0.588867
765,-7.78219e-38,-0.360645,-0.107293,9.88751,2.8638,0.342488,-5.58594,3.99585,-0.589111
766,-7.78686e-38,-0.349917,-0.129321,9.86955,2.83655,0.437081,3.1792,3.99243,-0.591064
767,-7.79153e-38,-0.35501,-0.116245,9.89934,2.98977,0.42599,3.33545,3.99365,-0.585693
768,-7.7962e-38,-0.357933,-0.115991,9.87367,2.9859,0.237137,5.0127,3.99512,-0.590576
769,-7.80087e-38,-0.362525,-0.107787,9.86459,2.94059,0.405576,-4.69189,3.99438,-0.587891
770,-7.80554e-38,-0.345382,-0.107109,9.88935,2.83168,0.47207,6.89771,3.99731,-0.587402
771,-7.81021e-38,-0.320058,-0.11674,9.85971,2.90309,0.427937,-3.53784,3.99438,-0.589355
772,-7.81489e-38,-0.350108,-0.11032,9.85848,2.95693,0.419587,-6.05933,3.99707,-0.584229
773,-7.81956e-38,-0.345484,-0.126438,9.85978,2.94543,0.358804,-0.496338,3.99536,-0.589844
774,-7.82423e-38,-0.350498,-0.125412,9.88215,2.93913,0.426708,-7.47144,3.99365,-0.582031
775,-7.8289e-38,-0.355226,-0.114333,9.85851,2.9067,0.321177,0.342529,3.99561,-0.585205
776,-7.83357e-38,-0.36524,-0.113623,9.89444,2.91744,0.564615,2.91382,3.99536,-0.589355
777,-7.83824e-38,-0.3585,-0.118448,9.87255,2.91549,0.522351,0.39624,3.99463,-0.588867
778,-7.84291e-38,-0.344043,-0.124743,9.8455,2.86887,0.391206,3.02295,3.99194,-0.590576
779,-7.84758e-38,-0.370995,-0.112451,9.88683,2.83762,0.550962,6.37793,3.99365,-0.583252
780,-7.85225e-38,-0.359938,-0.091184,9.87533,2.8951,0.581341,4.698,3.99487,-0.591553
781,-7.85692e-38,-0.357123,-0.11301,9.88247,2.93967,0.411672,1.39355,3.99438,-0.588379
782,-7.86159e-38,-0.351541,-0.130012,9.84736,2.78734,0.458444,-3.06641,3.99463,-0.587891
783,-7.86626e-38,-0.365289,-0.139175,9.90407,2.91674,0.364644,5.22363,3.99414,-0.587402
784,-7.87094e-38,-0.347744,-0.126796,9.86477,2.93009,0.3878,0.395264,3.99536,-0.586426
785,-7.87561e-38,-0.357878,-0.121144,9.89131,2.8044,0.434494,2.75342,3.9978,-0.590576
786,-7.88028e-38,-0.346329,-0.122998,9.88782,2.88862,0.468945,2.59863,3.99561,-0.584717
787,-7.88495e-38,-0.361488,-0.121766,9.87508,2.95355,0.403911,-3.16943,3.99365,-0.584717
788,-7.88962e-38,-0.347953,-0.114973,9.86868,2.92666,0.42722,-7.78516,3.99316,-0.588379
789,-7.89429e-38,-0.359602,-0.115481,9.87603,2.80898,0.435365,-4.21826,3.99292,-0.584229
790,-7.89896e-38,-0.34251,-0.0990247,9.89528,2.89328,0.421994,0.233398,3.99878,-0.588379
791,-7.90363e-38,-0.338528,-0.117826,9.83167,2.89431,0.459724,-5.58691,3.99634,-0.58374
792,-7.9083e-38,-0.339577,-0.109149,9.86702,2.8639,0.479934,6.74512,3.99365,-0.593262
793,-7.91297e-38,-0.369775,-0.131333,9.88554,2.78153,0.497019,4.54321,3.99243,-0.589111
794,-7.91764e-38,-0.34854,-0.101163,9.86702,2.85804,0.427681,-0.3396,3.99609,-0.587891
795,-7.92231e-38,-0.354915,-0.129405,9.87836,2.88398,0.500861,3.22876,3.99487,-0.587891
796,-7.92699e-38,-0.352254,-0.107975,9.90151,2.91206,0.383548,1.12866,3.99634,-0.586426
797,-7.93166e-38,-0.344066,-0.115441,9.90197,2.82517,0.417691,-0.178711,3.99268,-0.587891
798,-7.93633e-38,-0.347955,-0.133795,9.8866,2.88708,0.484032,7.63989,3.99146,-0.58374
799,-7.941e-38,-0.359823,-0.0966408,9.87672,2.81549,0.416257,-2.22656,3.99438,-0.589355
800,-7.94567e-38,-0.351193,-0.103866,9.87315,2.84013,0.429858,3.70361,3.99292,-0.588379
801,-7.95034e-38,-0.351701,-0.104976,9.88087,2.87592,0.406831,2.49658,3.99341,-0.586914
802,-7.95501e-38,-0.361372,-0.106743,9.86344,2.84838,0.412902,-0.91333,3.99316,-0.591553
803,-7.95968e-38,-0.362781,-0.120673,9.87376,2.95729,0.351786,1.49756,3.99536,-0.585205
804,-7.96435e-38,-0.346256,-0.10863,9.86745,2.83168,0.419484,-4.90137,3.99438,-0.591064
805,-7.96902e-38,-0.356673,-0.118523,9.86064,2.84052,0.45911,-7.89233,3.99512,-0.586426
806,-7.97369e-38,-0.346761,-0.130019,9.87421,2.89897,0.474427,-5.47998,3.99536,-0.588379
807,-7.97836e-38,-0.359588,-0.116793,9.86308,2.89507,0.341002,-4.00781,3.99292,-0.586182
808,-7.98303e-38,-0.348188,-0.13581,9.90665,2.93339,0.40555,-2.7998,3.9917,-0.58374
809,-7.98771e-38,-0.381688,-0.110883,9.88123,2.96185,0.446456,-3.0144,3.99512,-0.591064
810,-7.99238e-38,-0.357596,-0.117004,9.87375,2.8032,0.424505,7.74121,3.99414,-0.585205
811,-7.99705e-38,-0.341129,-0.13439,9.86424,2.91193,0.450196,-5.58838,3.99756,-0.590576
812,-8.00172e-38,-0.355106,-0.108011,9.89504,3.00353,0.550962,-2.90771,3.99365,-0.588379
813,-8.00639e-38,-0.362757,-0.108312,9.87718,2.97466,0.472122,0.921875,3.99414,-0.586182
814,-8.01106e-38,-0.33948,-0.118555,9.86922,3.02937,0.521916,5.74609,3.99536,-0.588867
815,-8.01573e-38,-0.339363,-0.10148,9.8881,2.77072,0.405115,0.188232,3.99341,-0.586426
816,-8.0204e-38,-0.33652,-0.130645,9.89821,2.83765,0.475144,3.11914,3.99854,-0.590088
817,-8.02507e-38,-0.348594,-0.133974,9.90276,2.88767,0.430242,-5.37231,3.99316,-0.586914
818,-8.02974e-38,-0.352171,-0.102656,9.89293,2.85368,0.512336,2.49658,3.99292,-0.587402
819,-8.03441e-38,-0.35516,-0.110432,9.89142,2.78547,0.337211,-2.38452,3.99512,-0.587891
820,-8.03908e-38,-0.359516,-0.0984989,9.88853,2.85939,0.510799,-6.68506,3.99414,-0.586914
821,-8.04376e-38,-0.359136,-0.113539,9.85267,2.85366,0.550552,-7.31763,3.99634,-0.589844
822,-8.04843e-38,-0.345482,-0.126688,9.88069,2.90847,0.530829,0.762939,3.99463,-0.583252
823,-8.0531e-38,-0.326676,-0.100247,9.86123,2.8763,0.486696,1.33984,3.99536,-0.587891
824,-8.05777e-38,-0.332199,-0.125352,9.88748,2.89554,0.508622,-7.5791,3.99536,-0.586426
825,-8.06244e-38,-0.351899,-0.0998608,9.85606,2.94656,0.46185,-1.43652,3.99243,-0.587891
826,-8.06711e-38,-0.355009,-0.0977659,9.89782,2.71129,0.377554,-7.99951,3.99609,-0.588867
827,-8.07178e-38,-0.338204,-0.116347,9.90248,2.88655,0.434648,5.43188,3.99487,-0.585205
828,-8.07645e-38,-0.349396,-0.113667,9.8912,2.86467,0.404039,1.9668,3.99707,-0.590576
829,-8.08112e-38,-0.37389,-0.119507,9.90238,2.88713,0.47476,-5.2688,3.9939,-0.586426
830,-8.08579e-38,-0.350531,-0.114725,9.88699,2.796,0.461799,3.49341,3.99316,-0.587402
831,-8.09046e-38,-0.332481,-0.101043,9.90917,2.80645,0.435135,6.96021,3.9895,-0.587891
832,-8.09513e-38,-0.35701,-0.113783,9.88572,2.93375,0.457445,-3.80005,3.99438,-0.588379
833,-8.09981e-38,-0.3579,-0.0965701,9.87706,2.87568,0.424018,-7.21094,3.99536,-0.590576
834,-8.10448e-38,-0.374012,-0.0949394,9.87586,2.88683,0.411416,-0.702393,3.99268,-0.584717
835,-8.10915e-38,-0.35087,-0.122022,9.87221,2.85737,0.477552,2.43945,3.99683,-0.590576
836,-8.11382e-38,-0.351138,-0.119352,9.88454,2.80537,0.383881,7.58032,3.99634,-0.587402
837,-8.11849e-38,-0.359854,-0.108633,9.88594,2.88196,0.358446,7.32446,3.99194,-0.587891
838,-8.12316e-38,-0.3683,-0.123934,9.86575,2.81982,0.36782,-1.54321,3.99341,-0.591064
839,-8.12783e-38,-0.344923,-0.0953813,9.86678,2.91854,0.400274,-5.11353,3.99609,-0.588379
840,-8.1325e-38,-0.344908,-0.108067,9.88097,2.9096,0.498197,4.17358,3.99438,-0.589355
841,-8.13717e-38,-0.341015,-0.108268,9.86123,2.72656,0.518893,4.9563,3.99756,-0.588379
842,-8.14184e-38,-0.34937,-0.131087,9.88096,2.74505,0.45204,-2.64624,3.99463,-0.586914
843,-8.14651e-38,-0.366763,-0.107997,9.88336,2.93514,0.311879,6.37598,3.99512,-0.587891
844,-8.15118e-38,-0.373563,-0.12163,9.86853,2.75512,0.448582,5.22266,3.99463,-0.585693
845,-8.15585e-38,-0.339938,-0.131566,9.89191,2.98421,0.476425,-3.22241,3.99341,-0.588379
846,-8.16053e-38,-0.346885,-0.12296,9.88831,2.89712,0.392897,-6.6875,3.99585,-0.586914
847,-8.1652e-38,-0.353335,-0.120315,9.84776,2.87812,0.388901,2.07202,3.99634,-0.586914
848,-8.16987e-38,-0.356056,-0.115016,9.89235,3.01582,0.375044,4.95752,3.99634,-0.587402
849,-8.17454e-38,-0.354835,-0.108393,9.87789,2.91592,0.448454,-2.75244,3.99561,-0.587402
850,-8.17921e-38,-0.344209,-0.119439,9.88196,2.80998,0.465488,-1.64722,3.99268,-0.588867
851,-8.18388e-38,-0.339077,-0.116216,9.87845,2.91032,0.498043,0.917236,3.99756,-0.584717
852,-8.18855e-38,-0.340685,-0.104993,9.86409,2.83314,0.440437,6.47974,3.99585,-0.592773
853,-8.19322e-38,-0.348159,-0.104537,9.88698,2.84997,0.45975,3.49414,3.99292,-0.586914
854,-8.19789e-38,-0.353952,-0.0917271,9.90126,2.99177,0.431779,0.712158,3.99414,-0.586914
855,-8.20256e-38,-0.337434,-0.114448,9.85697,2.89992,0.545481,3.64746,3.99536,-0.587402
856,-8.20723e-38,-0.359932,-0.0963492,9.87888,2.91667,0.472429,-5.00342,3.9917,-0.587402
857,-8.2119e-38,-0.34909,-0.108948,9.85804,2.85519,0.47978,2.96777,3.99414,-0.591064
858,-8.21658e-38,-0.344686,-0.131209,9.88198,2.85399,0.422481,-4.11377,3.99365,-0.58374
859,-8.22125e-38,-0.341085,-0.110991,9.87398,2.84743,0.458623,4.91016,3.99292,-0.587402
860,-8.22592e-38,-0.351941,-0.120068,9.89069,2.88649,0.464053,6.53564,3.99316,-0.587402
861,-8.23059e-38,-0.339018,-0.117366,9.86403,2.90107,0.424991,-1.44019,3.99438,-0.587402
862,-8.23526e-38,-0.357121,-0.133605,9.86189,2.84684,0.4243,0.188232,3.99341,-0.589844
863,-8.23993e-38,-0.357403,-0.118112,9.90266,2.88152,0.440027,6.11255,3.99609,-0.583252
864,-8.2446e-38,-0.339647,-0.116221,9.8823,2.86139,0.431523,5.59155,3.99341,-0.591064
865,-8.24927e-38,-0.32852,-0.11431,9.91083,2.87369,0.426784,-2.64795,3.99585,-0.586426
866,-8.25394e-38,-0.357308,-0.101512,9.87186,2.80727,0.342053,6.95483,3.99365,-0.588379
867,-8.25861e-38,-0.3558,-0.112851,9.85427,2.93619,0.565485,7.05737,3.99536,-0.588379
868,-8.26328e-38,-0.346494,-0.120637,9.87681,2.96451,0.564538,0.662109,3.99219,-0.584717
869,-8.26795e-38,-0.343789,-0.112696,9.86763,2.78634,0.616074,-0.0241699,3.99512,-0.592041
870,-8.27262e-38,-0.360898,-0.101509,9.89609,2.9482,0.420381,-3.06445,3.99341,-0.585693
871,-8.2773e-38,-0.355011,-0.127968,9.85709,2.87425,0.389926,6.53589,3.99341,-0.589355
872,-8.28197e-38,-0.362573,-0.113931,9.87284,2.87312,0.468715,-6.68677,3.99585,-0.587891
873,-8.28664e-38,-0.341173,-0.116522,9.90138,2.86155,0.326582,1.12939,3.99585,-0.586914
874,-8.29131e-38,-0.348593,-0.118092,9.88193,2.92033,0.440616,3.69922,3.99609,-0.590088
875,-8.29598e-38,-0.348193,-0.13556,9.87867,2.89879,0.573375,0.815918,3.99487,-0.58374
876,-8.30065e-38,-0.338433,-0.117533,9.8794,2.85243,0.368794,4.17529,3.99341,-0.589844
877,-8.30532e-38,-0.331031,-0.124339,9.88778,2.76913,0.474632,-7.89136,3.99365,-0.585693
878,-8.30999e-38,-0.345295,-0.110723,9.85634,2.89133,0.48124,0.0327148,3.9917,-0.586426
879,-8.31466e-38,-0.355848,-0.105189,9.86357,2.84884,0.455472,0.187012,3.99438,-0.588379
880,-8.31933e-38,-0.344018,-0.110166,9.86931,2.75284,0.374941,-4.53809,3.99707,-0.586914
881,-8.324e-38,-0.34482,-0.134183,9.86463,2.77297,0.50688,3.64868,3.99438,-0.590576
882,-8.32867e-38,-0.337446,-0.122382,9.89518,2.85478,0.404884,-7.89233,3.99463,-0.584229
883,-8.33335e-38,-0.358884,-0.126442,9.89622,2.94359,0.432291,-7.88843,3.99146,-0.587402
884,-8.33802e-38,-0.355578,-0.11393,9.85765,2.85258,0.320101,5.43335,3.99365,-0.587891
885,-8.34269e-38,-0.351235,-0.122217,9.91189,2.85271,0.375838,-7.78662,3.99365,-0.586914
886,-8.34736e-38,-0.342055,-0.12556,9.87364,2.96744,0.438336,-0.287598,3.99585,-0.587891
887,-8.35203e-38,-0.332059,-0.105384,9.89517,2.77394,0.523427,4.75269,3.99292,-0.585693
888,-8.3567e-38,-0.322694,-0.115224,9.87716,2.93403,0.475682,6.94971,3.99731,-0.591064
889,-8.36137e-38,-0.345242,-0.125351,9.89252,2.78926,0.449171,-2.48828,3.99414,-0.588379
890,-8.36604e-38,-0.331386,-0.120593,9.8629,2.82602,0.451451,2.80908,3.99512,-0.589355
891,-8.37071e-38,-0.342523,-0.117611,9.88888,2.98631,0.43329,-7.3645,3.99219,-0.588867
892,-8.37538e-38,-0.348257,-0.125819,9.87414,2.85002,0.401119,2.65063,3.99561,-0.584717
893,-8.38005e-38,-0.363987,-0.102035,9.86221,2.87287,0.43826,3.125,3.99414,-0.589355
894,-8.38472e-38,-0.345125,-0.110025,9.90091,2.86262,0.58339,-2.69238,3.98975,-0.58252
895,-8.3894e-38,-0.371407,-0.118102,9.88375,2.93995,0.520404,-3.33081,3.99609,-0.588379
896,-8.39407e-38,-0.34598,-0.104623,9.8884,2.77758,0.329758,-3.01318,3.99414,-0.588379
897,-8.39874e-38,-0.329782,-0.1184,9.87014,2.92712,0.399659,-6.42114,3.99292,-0.586914
898,-8.40341e-38,-0.363591,-0.0937065,9.88913,3.00911,0.467998,-1.75708,3.99683,-0.589844
899,-8.40808e-38,-0.35257,-0.107835,9.88098,2.91124,0.441,3.90942,3.99585,-0.587402
900,-8.41275e-38,-0.361035,-0.100071,9.88941,2.64285,0.583467,-4.90112,3.9939,-0.590576
901,-8.41742e-38,-0.338852,-0.111312,9.87211,2.80484,0.419689,-0.0751953,3.99365,-0.587891
902,-8.42209e-38,-0.35105,-0.10947,9.86894,2.78048,0.519329,1.02515,3.99536,-0.587402
903,-8.42676e-38,-0.346878,-0.113876,9.8764,2.76905,0.350992,-5.90137,3.99634,-0.588867
904,-8.43143e-38,-0.339903,-0.119515,9.87255,2.87991,0.530983,6.85059,3.99341,-0.58374
905,-8.4361e-38,-0.337787,-0.10256,9.8556,2.87845,0.427066,-7.15918,3.99585,-0.590576
906,-8.44077e-38,-0.354984,-0.122922,9.86933,2.8723,0.46267,-3.53809,3.99463,-0.585938
907,-8.44544e-38,-0.344126,-0.1081,9.8731,2.91477,0.354936,-2.59375,3.99463,-0.588379
908,-8.45012e-38,-0.340433,-0.103528,9.88689,2.99743,0.441743,-0.126221,3.99341,-0.587891
909,-8.45479e-38,-0.33032,-0.107101,9.87448,2.84905,0.493894,-2.75269,3.99536,-0.586426
910,-8.45946e-38,-0.348341,-0.113823,9.90641,2.8637,0.543355,-6.0022,3.99365,-0.59375
911,-8.46413e-38,-0.343946,-0.0886987,9.88609,2.88017,0.409956,-6.74072,3.99634,-0.585938
912,-8.4688e-38,-0.344239,-0.10672,9.87148,2.84469,0.220206,6.37329,3.99683,-0.587402
913,-8.47347e-38,-0.344723,-0.134735,9.87275,2.86731,0.475605,-4.75098,3.99927,-0.588379
914,-8.47814e-38,-0.346018,-0.118224,9.88753,2.99051,0.401401,-4.90479,3.99658,-0.586426
915,-8.48281e-38,-0.346583,-0.106822,9.88472,2.91892,0.369332,-7.58057,3.99707,-0.590088
916,-8.48748e-38,-0.349991,-0.10411,9.85372,2.88058,0.520507,-6.89209,3.99194,-0.585205
917,-8.49215e-38,-0.343998,-0.108075,9.8433,2.87425,0.559364,-6.15918,3.99316,-0.588379
918,-8.49682e-38,-0.337731,-0.118581,9.88706,2.88206,0.443946,3.64795,3.99487,-0.584717
919,-8.50149e-38,-0.333301,-0.101169,9.86787,2.96526,0.50145,-2.06714,3.99292,-0.589355
920,-8.50617e-38,-0.357104,-0.106624,9.90333,2.94413,0.436851,1.12842,3.99634,-0.587891
921,-8.51084e-38,-0.344703,-0.0943836,9.88641,2.89295,0.469304,4.28101,3.99268,-0.584229
922,-8.51551e-38,-0.338572,-0.107446,9.87382,2.86326,0.429115,2.7561,3.99561,-0.588867
923,-8.52018e-38,-0.36959,-0.12021,9.85672,2.88826,0.308626,-4.90454,3.99609,-0.584717
924,-8.52485e-38,-0.361629,-0.132593,9.8816,2.81531,0.437466,-6.57861,3.99268,-0.589355
925,-8.52952e-38,-0.352139,-0.113016,9.89122,2.8492,0.398942,4.49048,3.99292,-0.587402
926,-8.53419e-38,-0.373031,-0.123013,9.87307,2.9431,0.510287,-4.32446,3.9939,-0.586914
927,-8.53886e-38,-0.357144,-0.111049,9.85822,2.90857,0.506189,-2.06909,3.99438,-0.590088
928,-8.54353e-38,-0.350827,-0.126216,9.89022,2.77679,0.47832,-6.6333,3.99487,-0.585693
929,-8.5482e-38,-0.343014,-0.111534,9.85223,2.78237,0.449581,3.54663,3.99268,-0.590088
930,-8.55287e-38,-0.347072,-0.112302,9.83833,2.87871,0.478371,-7.67969,3.99268,-0.584717
931,-8.55754e-38,-0.358844,-0.134835,9.86525,2.90522,0.4024,4.64453,3.99561,-0.589355
932,-8.56221e-38,-0.337127,-0.12847,9.89047,2.9359,0.412825,1.96753,3.99683,-0.586914
933,-8.56689e-38,-0.343275,-0.13579,9.86357,2.96093,0.492613,-1.0166,3.99194,-0.587402
934,-8.57156e-38,-0.33937,-0.104525,9.86233,2.7865,0.35696,-7.78516,3.99268,-0.587891
935,-8.57623e-38,-0.34333,-0.109834,9.87218,2.87492,0.563616,-2.64404,3.99292,-0.586426
936,-8.5809e-38,-0.359348,-0.11107,9.87829,2.89986,0.514436,5.33008,3.99243,-0.592529
937,-8.58557e-38,-0.338808,-0.122275,9.87516,2.75502,0.455754,6.22314,3.9917,-0.585693
938,-8.59024e-38,-0.342438,-0.118057,9.86904,2.88552,0.405166,0.653809,3.99829,-0.587402
939,-8.59491e-38,-0.366262,-0.100891,9.84952,2.76531,0.376478,3.23242,3.99194,-0.587891
940,-8.59958e-38,-0.353793,-0.104804,9.86892,2.87074,0.362083,4.59326,3.99438,-0.584717
941,-8.60425e-38,-0.350223,-0.117528,9.88015,2.76757,0.417461,-6.31445,3.9917,-0.590088
942,-8.60892e-38,-0.350047,-0.127056,9.87794,2.94033,0.515102,1.23682,3.99365,-0.584229
943,-8.61359e-38,-0.351804,-0.121736,9.88946,2.91014,0.414464,-4.85107,3.99585,-0.585693
944,-8.61826e-38,-0.357189,-0.109709,9.8802,2.83772,0.466282,7.32153,3.99414,-0.586426
945,-8.62294e-38,-0.351873,-0.116008,9.8887,2.9265,0.498914,1.23877,3.99243,-0.58374
946,-8.62761e-38,-0.353438,-0.112454,9.9109,2.87781,0.581725,-0.443359,3.99438,-0.588867
947,-8.63228e-38,-0.342516,-0.122982,9.89348,2.92136,0.419228,-7.78418,3.99268,-0.585693
948,-8.63695e-38,-0.3653,-0.117636,9.89081,2.9566,0.426272,-5.2688,3.9939,-0.590576
949,-8.64162e-38,-0.37329,-0.112009,9.87428,2.88739,0.479242,-2.75,3.99414,-0.586426
950,-8.64629e-38,-0.365937,-0.12322,9.88698,2.89502,0.534902,-0.912842,3.99219,-0.586182
951,-8.65096e-38,-0.33858,-0.12912,9.9016,2.89405,0.503576,-3.80005,3.99438,-0.587891
952,-8.65563e-38,-0.354141,-0.136206,9.87447,2.87486,0.493253,-5.10889,3.99219,-0.586426
953,-8.6603e-38,-0.365179,-0.100985,9.89695,2.84677,0.524785,-6.26562,3.99414,-0.590088
954,-8.66497e-38,-0.354921,-0.106124,9.89708,2.76237,0.494355,-4.11841,3.99707,-0.58374
955,-8.66964e-38,-0.34839,-0.0960685,9.86276,2.74116,0.426195,2.38965,3.99463,-0.589355
956,-8.67431e-38,-0.350042,-0.11714,9.88549,2.89968,0.417947,-6.21484,3.99536,-0.587402
957,-8.67899e-38,-0.350744,-0.100868,9.89429,2.83504,0.506496,2.33594,3.99585,-0.585205
958,-8.68366e-38,-0.363854,-0.104892,9.88578,2.93035,0.437414,5.8064,3.98975,-0.5896
959,-8.68833e-38,-0.351739,-0.0822762,9.84608,2.9013,0.518791,7.47705,3.99561,-0.586426
960,-8.693e-38,-0.344847,-0.107034,9.85076,2.86103,0.414387,2.07593,3.9939,-0.589355
961,-8.69767e-38,-0.364105,-0.120997,9.85841,2.83463,0.56026,-7.78564,3.9939,-0.587402
962,-8.70234e-38,-0.352813,-0.12027,9.87799,2.89008,0.525297,-7.57983,3.99634,-0.589111
963,-8.70701e-38,-0.350047,-0.114667,9.88347,2.88158,0.412056,-6.37183,3.99536,-0.588379
964,-8.71168e-38,-0.355016,-0.123529,9.89315,2.85097,0.450119,3.75659,3.99243,-0.586426
965,-8.71635e-38,-0.350032,-0.123835,9.86727,2.80258,0.462286,4.75635,3.99023,-0.589355
966,-8.72102e-38,-0.357447,-0.129136,9.88921,2.88252,0.55547,-3.38403,3.99683,-0.58374
967,-8.72569e-38,-0.371376,-0.130936,9.87577,2.87758,0.420355,3.64722,3.99609,-0.58667
968,-8.73036e-38,-0.3395,-0.118046,9.90831,2.90622,0.369998,-4.74634,3.99634,-0.588379
969,-8.73503e-38,-0.337577,-0.09942,9.90013,2.818,0.413875,7.74097,3.99438,-0.586182
970,-8.73971e-38,-0.366326,-0.0942652,9.88344,2.94991,0.412978,3.28198,3.99438,-0.587402
971,-8.74438e-38,-0.332016,-0.110348,9.85074,2.92028,0.364875,-2.49292,3.99731,-0.585205
972,-8.74905e-38,-0.330336,-0.11036,9.87071,2.77827,0.39656,-1.07129,3.99341,-0.588867
973,-8.75372e-38,-0.353208,-0.116211,9.89481,3.01408,0.416001,1.75977,3.99536,-0.587891
974,-8.75839e-38,-0.345098,-0.11023,9.90426,2.95429,0.402912,-7.26221,3.99438,-0.587402
975,-8.76306e-38,-0.346909,-0.103345,9.87119,2.8252,0.383394,-5.94922,3.99268,-0.592041
976,-8.76773e-38,-0.328744,-0.122699,9.83972,2.85276,0.494688,-7.10229,3.99194,-0.584717
977,-8.7724e-38,-0.352429,-0.140179,9.89307,2.85686,0.445662,0.240723,3.99341,-0.587891
978,-8.77707e-38,-0.34178,-0.114719,9.8738,2.96052,0.45496,-0.916016,3.99561,-0.584717
979,-8.78174e-38,-0.359737,-0.113518,9.86905,2.89756,0.425427,7.94897,3.99585,-0.588379
980,-8.78641e-38,-0.340351,-0.109555,9.89143,2.86029,0.444689,-1.91235,3.99512,-0.586914
981,-8.79108e-38,-0.3593,-0.11026,9.89143,2.86959,0.438541,-0.444336,3.99536,-0.587891
982,-8.79576e-38,-0.337374,-0.114429,9.85937,2.8397,0.450939,-4.21899,3.99341,-0.588867
983,-8.80043e-38,-0.343917,-0.109393,9.89501,2.86938,0.390463,4.22705,3.99316,-0.584717
984,-8.8051e-38,-0.34732,-0.11461,9.86712,2.97197,0.41869,-0.020752,3.99243,-0.592041
985,-8.80977e-38,-0.336068,-0.102071,9.87966,2.85122,0.471891,-0.127197,3.99365,-0.587891
986,-8.81444e-38,-0.352719,-0.125903,9.87595,2.87917,0.425555,-1.23096,3.99512,-0.586914
987,-8.81911e-38,-0.340275,-0.101599,9.85514,2.84023,0.52481,6.37793,3.99365,-0.589355
988,-8.82378e-38,-0.347743,-0.12927,9.87729,2.93329,0.475195,-7.00122,3.99536,-0.584717
989,-8.82845e-38,-0.34108,-0.106898,9.8854,2.84976,0.33255,7.21655,3.99414,-0.5896
990,-8.83312e-38,-0.342504,-0.0998085,9.88211,2.83491,0.520917,-6.31738,3.9939,-0.58374
991,-8.83779e-38,-0.351285,-0.123601,9.86045,2.87353,0.329963,-3.43286,3.9939,-0.585693
992,-8.84246e-38,-0.337326,-0.123702,9.88865,2.90647,0.407318,-0.229736,3.99194,-0.588379
993,-8.84713e-38,-0.353919,-0.112471,9.89344,2.84554,0.456036,-1.2793,3.99194,-0.585693
994,-8.85181e-38,-0.350607,-0.0969348,9.88437,2.87556,0.389541,1.39404,3.9939,-0.587402
995,-8.85648e-38,-0.348143,-0.108061,9.88932,2.79062,0.507956,2.70776,3.99194,-0.586426
996,-8.86115e-38,-0.363795,-0.133236,9.87427,2.88503,0.409264,6.64209,3.99243,-0.590088
997,-8.86582e-38,-0.342363,-0.10155,9.89023,2.85612,0.405806,3.01831,3.99561,-0.588379
998,-8.87049e-38,-0.356537,-0.138414,9.85444,2.83014,0.428014,2.38965,3.99438,-0.587891
999,-8.87516e-38,-0.332367,-0.120016,9.89847,3.00504,0.467178,2.91943,3.99097,-0.587402
1000,-8.87983e-38,-0.354161,-0.114763,9.83966,3.00058,0.41846,1.13379,3.99243,-0.585205
1001,-8.8845e-38,-0.333988,-0.114302,9.86373,2.90368,0.416897,7.10938,3.99585,-0.590576
1002,-8.88917e-38,-0.371638,-0.108262,9.87474,2.85373,0.371739,-5.94873,3.99268,-0.58374
1003,-8.89384e-38,-0.353073,-0.126544,9.8891,2.93403,0.563103,2.9668,3.99438,-0.58667
1004,-8.89851e-38,-0.348544,-0.117371,9.87091,2.79075,0.448428,-2.59082,3.99194,-0.585693
1005,-8.90318e-38,-0.333351,-0.118828,9.86956,2.82282,0.492075,3.23071,3.99316,-0.587402
1006,-8.90785e-38,-0.346571,-0.0995037,9.89473,2.85624,0.40409,-1.07495,3.99658,-0.591064
1007,-8.91253e-38,-0.361186,-0.0985712,9.87801,2.91426,0.457112,-0.706299,3.99512,-0.587402
1008,-8.9172e-38,-0.346326,-0.106626,9.91198,2.84221,0.401452,3.33301,3.99561,-0.590088
1009,-8.92187e-38,-0.351384,-0.106336,9.86343,2.86203,0.308165,-4.63843,3.99365,-0.585205
1010,-8.92654e-38,-0.345238,-0.0979689,9.8636,2.92548,0.548042,7.7937,3.9939,-0.585205
1011,-8.93121e-38,-0.325837,-0.121087,9.89045,2.85253,0.427502,6.1167,3.99292,-0.589355
1012,-8.93588e-38,-0.327109,-0.111042,9.8616,2.81685,0.402681,-3.01147,3.99316,-0.584717
1013,-8.94055e-38,-0.344492,-0.120501,9.86168,2.92284,0.420637,0.87207,3.9917,-0.588867
1014,-8.94522e-38,-0.354054,-0.111711,9.8656,2.96715,0.547991,-2.4834,3.99048,-0.587402
1015,-8.94989e-38,-0.370591,-0.12603,9.87811,2.87474,0.390438,3.5979,3.99341,-0.588379
1016,-8.95456e-38,-0.355199,-0.119083,9.87696,2.99364,0.605034,-7.89307,3.99561,-0.588379
1017,-8.95923e-38,-0.336339,-0.105273,9.86069,2.93142,0.443639,0.916504,3.99829,-0.586182
1018,-8.9639e-38,-0.334957,-0.120971,9.86396,2.89244,0.462926,6.6936,3.99316,-0.590088
1019,-8.96858e-38,-0.354396,-0.119041,9.88712,2.77768,0.447353,-1.85669,3.99219,-0.586914
1020,-8.97325e-38,-0.354937,-0.121981,9.87219,2.84951,0.457675,-5.84888,3.99634,-0.591064
1021,-8.97792e-38,-0.347184,-0.111756,9.87753,2.93224,0.560337,-0.0776367,3.99585,-0.585205
1022,-8.98259e-38,-0.351371,-0.11107,9.86714,2.81849,0.386083,-1.43921,3.99414,-0.588379
1023,-8.98726e-38,-0.355037,-0.110434,9.88489,2.98347,0.363876,4.3291,3.99585,-0.590088
1024,-8.99193e-38,-0.352242,-0.104589,9.89034,2.8117,0.531009,-2.96094,3.99438,-0.587402
1025,-8.9966e-38,-0.34478,-0.121919,9.87213,2.88542,0.479575,-5.16064,3.99194,-0.592041
1026,-9.00127e-38,-0.354611,-0.130565,9.88815,2.85791,0.473197,5.16772,3.99634,-0.584717
1027,-9.00594e-38,-0.339536,-0.10718,9.86322,2.85174,0.349609,-0.706055,3.99561,-0.587402
1028,-9.01061e-38,-0.34021,-0.107318,9.88546,2.90699,0.378117,7.21704,3.9939,-0.588379
1029,-9.01528e-38,-0.36092,-0.121658,9.88597,2.86116,0.419356,0.345703,3.99341,-0.585205
1030,-9.01995e-38,-0.353753,-0.110108,9.88461,2.85127,0.432087,7.00391,3.99634,-0.589355
1031,-9.02462e-38,-0.349668,-0.123241,9.88672,2.8722,0.487183,-2.22534,3.99365,-0.585693
1032,-9.0293e-38,-0.336426,-0.105925,9.89285,2.80379,0.554779,0.659668,3.9939,-0.591064
1033,-9.03397e-38,-0.351292,-0.125171,9.85116,2.84761,0.54712,5.54126,3.9917,-0.587891
1034,-9.03864e-38,-0.339326,-0.0996649,9.86956,2.78084,0.427322,-4.37891,3.99561,-0.5896
1035,-9.04331e-38,-0.355474,-0.133531,9.89942,2.94769,0.399864,5.48267,3.99634,-0.588379
1036,-9.04798e-38,-0.334031,-0.129734,9.85939,2.9201,0.541485,-2.95972,3.99341,-0.586426
1037,-9.05265e-38,-0.337811,-0.1214,9.86153,2.84951,0.43995,-2.38501,3.99536,-0.590088
1038,-9.05732e-38,-0.356834,-0.124218,9.85663,2.89925,0.491102,2.28345,3.99561,-0.585693
1039,-9.06199e-38,-0.354578,-0.11367,9.89014,2.85145,0.563103,5.00879,3.99756,-0.58667
1040,-9.06666e-38,-0.344916,-0.113993,9.87415,2.85043,0.430345,0.708008,3.99707,-0.58667
1041,-9.07133e-38,-0.345988,-0.119252,9.90296,2.8669,0.370792,6.58472,3.99609,-0.584717
1042,-9.076e-38,-0.351435,-0.110642,9.84621,2.8765,0.358958,-4.16431,3.99219,-0.585693
1043,-9.08067e-38,-0.35951,-0.115656,9.87081,2.95906,0.449786,1.86816,3.99243,-0.585693
1044,-9.08535e-38,-0.340541,-0.0920145,9.87599,2.86311,0.414566,2.96851,3.99341,-0.588867
1045,-9.09002e-38,-0.348321,-0.115642,9.87495,2.93693,0.50624,-2.49219,3.99683,-0.587891
1046,-9.09469e-38,-0.355576,-0.111805,9.90962,3.02087,0.446251,-6.11035,3.99634,-0.586914
1047,-9.09936e-38,-0.376291,-0.0987029,9.8608,2.96001,0.526629,-1.38916,3.99585,-0.590088
1048,-9.10403e-38,-0.348158,-0.10377,9.86953,2.9148,0.380499,-2.177,3.99658,-0.588379
1049,-9.1087e-38,-0.359089,-0.10812,9.90204,2.79933,0.381729,-2.54468,3.99683,-0.591553
1050,-9.11337e-38,-0.351391,-0.114216,9.89075,2.83437,0.491665,-6.74072,3.99658,-0.584717
1051,-9.11804e-38,-0.355189,-0.111741,9.86724,2.88063,0.437081,-3.74707,3.9939,-0.585693
1052,-9.12271e-38,-0.350969,-0.11092,9.88111,2.83378,0.460954,2.44556,3.99219,-0.584229
1053,-9.12738e-38,-0.362736,-0.112344,9.85323,2.97901,0.439566,1.44312,3.99634,-0.586182
1054,-9.13205e-38,-0.346918,-0.109448,9.87029,3.06592,0.417973,-5.06152,3.99634,-0.591064
1055,-9.13672e-38,-0.333656,-0.118188,9.88291,2.83532,0.399736,-2.33081,3.9939,-0.583252
1056,-9.1414e-38,-0.342272,-0.120146,9.87362,2.93767,0.430473,7.53076,3.99463,-0.590088
1057,-9.14607e-38,-0.364317,-0.107039,9.85098,2.99558,0.455319,-5.7439,3.99634,-0.586426
1058,-9.15074e-38,-0.345623,-0.134939,9.88501,2.81977,0.40222,0.345459,3.99365,-0.585693
1059,-9.15541e-38,-0.349248,-0.125149,9.89042,2.82389,0.403629,-5.4812,3.99609,-0.588379
1060,-9.16008e-38,-0.336359,-0.11063,9.88146,2.89577,0.36841,-5.10962,3.99292,-0.586426
1061,-9.16475e-38,-0.351335,-0.0914214,9.87623,2.88252,0.334419,-7.36523,3.99292,-0.590088
1062,-9.16942e-38,-0.353723,-0.114772,9.84887,2.89369,0.572017,-4.74561,3.99561,-0.585938
1063,-9.17409e-38,-0.373479,-0.102183,9.87938,2.83188,0.337032,5.22266,3.99487,-0.58667
1064,-9.17876e-38,-0.360676,-0.10372,9.86797,2.95494,0.451348,-6.73486,3.99243,-0.588379
1065,-9.18343e-38,-0.350006,-0.118541,9.84481,2.82727,0.429448,-0.544189,3.99146,-0.585693
1066,-9.1881e-38,-0.352249,-0.126779,9.87524,2.89116,0.430703,-1.06982,3.99243,-0.591553
1067,-9.19277e-38,-0.344301,-0.118879,9.87557,2.8452,0.405653,-1.38647,3.9939,-0.585205
1068,-9.19744e-38,-0.33353,-0.112441,9.86636,2.97135,0.501347,-6.31934,3.99561,-0.591553
1069,-9.20212e-38,-0.343768,-0.117615,9.8751,2.87446,0.465436,-2.53882,3.99268,-0.586426
1070,-9.20679e-38,-0.340895,-0.108701,9.88713,2.82799,0.298508,4.80322,3.99438,-0.588379
1071,-9.21146e-38,-0.330163,-0.119832,9.87224,2.94261,0.486901,-5.31763,3.99121,-0.588379
1072,-9.21613e-38,-0.354613,-0.10506,9.84258,2.86943,0.38926,4.5415,3.9939,-0.585693
1073,-9.2208e-38,-0.359235,-0.105762,9.87763,2.86152,0.243079,-7.20923,3.99414,-0.591553
1074,-9.22547e-38,-0.356204,-0.118858,9.88819,2.91818,0.372124,-4.32202,3.99243,-0.585205
1075,-9.23014e-38,-0.336343,-0.119341,9.89677,2.74946,0.452988,-6.68384,3.99292,-0.587402
1076,-9.23481e-38,-0.338888,-0.0965929,9.87736,2.9036,0.471097,1.28857,3.99463,-0.588379
1077,-9.23948e-38,-0.3507,-0.133904,9.86311,2.84254,0.399326,-5.05908,3.99414,-0.587891
1078,-9.24415e-38,-0.343609,-0.116477,9.86072,2.82033,0.419971,-7.78809,3.99561,-0.591064
1079,-9.24882e-38,-0.366971,-0.116357,9.89329,2.90934,0.402502,0.610352,3.9917,-0.58252
1080,-9.25349e-38,-0.340697,-0.12487,9.88135,2.78153,0.380038,3.17822,3.99365,-0.591064
1081,-9.25817e-38,-0.339058,-0.117302,9.88577,2.83291,0.468254,4.12085,3.99438,-0.5896
1082,-9.26284e-38,-0.345741,-0.131405,9.86621,2.80286,0.329783,-1.17871,3.99536,-0.588379
1083,-9.26751e-38,-0.357649,-0.102996,9.89911,2.90307,0.445099,-5.47876,3.99438,-0.588379
1084,-9.27218e-38,-0.347646,-0.122712,9.85791,2.91034,0.422251,-7.52637,3.99561,-0.586426
1085,-9.27685e-38,-0.348413,-0.130692,9.87628,2.87476,0.470277,-7.21167,3.99585,-0.590576
1086,-9.28152e-38,-0.358849,-0.101449,9.89862,2.89379,0.52878,-0.286133,3.99438,-0.587402
1087,-9.28619e-38,-0.354332,-0.123876,9.89147,2.85378,0.41618,-1.02173,3.99561,-0.588379
1088,-9.29086e-38,-0.362677,-0.11655,9.88381,2.88145,0.459238,-4.58398,3.99219,-0.589355
1089,-9.29553e-38,-0.354436,-0.12151,9.88434,2.71767,0.410366,-3.80127,3.99512,-0.585205
1090,-9.3002e-38,-0.351996,-0.125232,9.88822,2.82484,0.510722,-7.10425,3.99365,-0.588867
1091,-9.30487e-38,-0.344413,-0.115831,9.85291,2.95578,0.381806,4.3313,3.99365,-0.586426
1092,-9.30954e-38,-0.345946,-0.109168,9.87839,2.85645,0.326633,-1.85889,3.99438,-0.589355
1093,-9.31422e-38,-0.323444,-0.124035,9.88184,2.8326,0.434213,2.9646,3.99683,-0.587402
1094,-9.31889e-38,-0.355481,-0.111482,9.8899,2.90412,0.402733,4.17578,3.99292,-0.587891
1095,-9.32356e-38,-0.339618,-0.115963,9.8923,2.80863,0.34464,-4.64136,3.99585,-0.5896
1096,-9.32823e-38,-0.333725,-0.123495,9.87772,2.88314,0.475964,6.06445,3.99292,-0.584229
1097,-9.3329e-38,-0.367071,-0.114444,9.86086,2.87289,0.409136,-6.42676,3.99756,-0.588379
1098,-9.33757e-38,-0.39189,-0.126367,9.90589,2.86634,0.439873,3.75806,3.99146,-0.586914
1099,-9.34224e-38,-0.361471,-0.121661,9.87702,2.88729,0.367052,1.76001,3.99487,-0.587891
1100,-9.34691e-38,-0.339884,-0.0988966,9.87799,3.00086,0.451733,-2.64624,3.99463,-0.586914
1101,-9.35158e-38,-0.339825,-0.0991036,9.89061,2.88409,0.503166,1.86621,3.99365,-0.58374
1102,-9.35625e-38,-0.352974,-0.128116,9.90124,2.94164,0.319409,3.38696,3.9939,-0.590088
1103,-9.36092e-38,-0.343415,-0.120303,9.87694,2.92166,0.478756,-0.445557,3.99634,-0.586426
1104,-9.36559e-38,-0.361605,-0.113647,9.8696,2.89315,0.432957,3.01904,3.99487,-0.590576
1105,-9.37026e-38,-0.341124,-0.122795,9.8703,2.80412,0.397763,-7.89282,3.99512,-0.587891
1106,-9.37494e-38,-0.34457,-0.112246,9.88963,2.85832,0.392948,-0.760254,3.99634,-0.587402
1107,-9.37961e-38,-0.335731,-0.121734,9.89044,2.91895,0.583774,-6.52954,3.99561,-0.588867
1108,-9.38428e-38,-0.353857,-0.104628,9.86136,2.82666,0.488976,5.64282,3.99414,-0.587891
1109,-9.38895e-38,-0.344638,-0.12802,9.87333,2.91388,0.440411,-5.00903,3.99634,-0.591064
1110,-9.39362e-38,-0.357571,-0.116139,9.87977,2.87545,0.443331,3.33569,3.99341,-0.58374
1111,-9.39829e-38,-0.351592,-0.121539,9.895,2.87635,0.468331,-6.78687,3.9917,-0.588379
1112,-9.40296e-38,-0.360436,-0.116731,9.88647,2.85609,0.412697,5.69287,3.99609,-0.588867
1113,-9.41131e-38,-0.329967,-0.120514,9.84131,2.91382,0.346202,-5.15918,3.99072,-0.586914
1114,-9.42065e-38,-0.349544,-0.131135,9.89208,2.88229,0.381191,-4.58765,3.99463,-0.588867
1115,-9.42999e-38,-0.363223,-0.10457,9.89302,2.9151,0.34902,5.32935,3.99341,-0.584717
1116,-9.43933e-38,-0.351734,-0.105942,9.86508,2.84953,0.388491,5.64038,3.99634,-0.588379
1117,-9.44867e-38,-0.357123,-0.119153,9.87817,2.87405,0.367154,-1.12134,3.9917,-0.587891
1118,-9.45802e-38,-0.331454,-0.121421,9.88359,2.84707,0.341694,-7.05225,3.99414,-0.586914
1119,-9.46736e-38,-0.347073,-0.129903,9.85716,2.99584,0.432624,1.49829,3.99438,-0.5896
1120,-9.4767e-38,-0.335719,-0.10441,9.88134,2.87061,0.406985,-7.58154,3.99731,-0.585938
1121,-9.48604e-38,-0.36015,-0.107132,9.87256,2.82248,0.579317,-1.75562,3.99561,-0.590088
1122,-9.49538e-38,-0.365511,-0.110085,9.8639,2.87863,0.446815,4.96216,3.99341,-0.585205
1123,-9.50472e-38,-0.354886,-0.138685,9.84168,2.86523,0.545865,-0.969482,3.99585,-0.587891
1124,-9.51407e-38,-0.332803,-0.135836,9.86718,2.84871,0.367948,-0.599854,3.99414,-0.587891
1125,-9.52341e-38,-0.372173,-0.127778,9.87753,2.96961,0.425145,6.26904,3.99634,-0.584717
1126,-9.53275e-38,-0.368085,-0.0999301,9.86339,2.81165,0.437773,5.64233,3.99463,-0.588867
1127,-9.54209e-38,-0.349769,-0.108046,9.8945,2.90701,0.389746,7.48047,3.99316,-0.585205
1128,-9.55143e-38,-0.348805,-0.113397,9.85207,2.95342,0.43534,5.95874,3.99316,-0.590088
1129,-9.56077e-38,-0.371688,-0.125032,9.88104,2.75404,0.466333,-5.10962,3.99268,-0.586426
1130,-9.57012e-38,-0.325954,-0.117904,9.89804,2.8857,0.466384,3.39062,3.99146,-0.588867
1131,-9.57946e-38,-0.357335,-0.105168,9.91424,2.87753,0.461312,-1.80688,3.99463,-0.587402
1132,-9.5888e-38,-0.349398,-0.114338,9.88201,2.92256,0.471584,6.47974,3.99585,-0.585205
1133,-9.59814e-38,-0.353101,-0.116662,9.85044,2.77305,0.397994,3.5459,3.99292,-0.587891
1134,-9.60748e-38,-0.349018,-0.116536,9.86284,2.78486,0.514001,4.70068,3.99268,-0.585205
1135,-9.61682e-38,-0.339118,-0.123999,9.873,2.87043,0.480523,-6.7876,3.99243,-0.588867
1136,-9.62616e-38,-0.32895,-0.11524,9.87269,2.88616,0.569814,2.39258,3.99268,-0.590576
1137,-9.63551e-38,-0.349349,-0.12,9.8712,2.90245,0.525297,-3.69775,3.99609,-0.588379
1138,-9.64485e-38,-0.348795,-0.118598,9.88309,2.80988,0.394562,3.7002,3.99536,-0.5896
1139,-9.65419e-38,-0.343136,-0.108579,9.87795,2.82978,0.418895,7.79248,3.99487,-0.588379
1140,-9.66353e-38,-0.333637,-0.0945655,9.86659,2.90973,0.606955,-1.59473,3.99268,-0.5896
1141,-9.67287e-38,-0.344026,-0.10792,9.87177,2.76191,0.369076,4.28052,3.99268,-0.586914
1142,-9.68221e-38,-0.344404,-0.111657,9.89447,2.85527,0.457445,5.22217,3.99487,-0.588867
1143,-9.69156e-38,-0.332379,-0.107691,9.88631,2.81544,0.424607,6.42578,3.99683,-0.590088
1144,-9.7009e-38,-0.341637,-0.118123,9.86505,2.88252,0.361571,4.90674,3.99561,-0.586426
1145,-9.71024e-38,-0.354814,-0.127422,9.85977,2.98265,0.355961,-4.69727,3.99829,-0.587891
1146,-9.71958e-38,-0.365689,-0.123317,9.88903,2.89105,0.436467,0.0856934,3.9917,-0.585938
1147,-9.72892e-38,-0.376189,-0.111967,9.90394,2.81603,0.466153,-0.703125,3.99243,-0.587891
1148,-9.73826e-38,-0.351057,-0.105158,9.8652,2.85699,0.456779,6.32202,3.99585,-0.587402
1149,-9.74761e-38,-0.360976,-0.113663,9.86368,2.91318,0.552166,-1.69995,3.99292,-0.586426
1150,-9.75695e-38,-0.3529,-0.125597,9.86396,2.97471,0.469048,0.289307,3.99658,-0.588867
1151,-9.76629e-38,-0.365717,-0.103125,9.88965,2.88114,0.384367,-4.01294,3.99658,-0.587402
1152,-9.77563e-38,-0.347055,-0.10511,9.91578,2.86967,0.446021,-0.705811,3.99438,-0.589844
1153,-9.78497e-38,-0.339236,-0.0999777,9.89874,2.79152,0.561285,4.96313,3.99243,-0.587891
1154,-9.79431e-38,-0.362644,-0.110906,9.85493,2.87353,0.383215,3.54541,3.99341,-0.588379
1155,-9.80366e-38,-0.349256,-0.110662,9.86948,2.96864,0.43808,5.01489,3.99292,-0.590088
1156,-9.813e-38,-0.340011,-0.109992,9.87351,2.91749,0.435596,-7.57642,3.9939,-0.585938
1157,-9.82234e-38,-0.343409,-0.120234,9.87714,2.94884,0.377784,3.49121,3.99463,-0.588379
1158,-9.83168e-38,-0.358064,-0.103324,9.87879,2.75502,0.499554,-1.5459,3.99536,-0.586426
1159,-9.84102e-38,-0.36089,-0.119983,9.87949,2.93409,0.380346,7.16162,3.99609,-0.5896
1160,-9.85036e-38,-0.331319,-0.130312,9.88108,2.91933,0.450862,-5.21533,3.99365,-0.588867
1161,-9.85971e-38,-0.348157,-0.122178,9.88118,2.82161,0.323866,1.91577,3.99585,-0.584717
1162,-9.86905e-38,-0.340652,-0.107541,9.88594,2.95588,0.446584,-0.703613,3.99292,-0.589355
1163,-9.87839e-38,-0.33851,-0.0998202,9.87378,2.82294,0.422686,-1.54224,3.99243,-0.586426
1164,-9.88773e-38,-0.329906,-0.100986,9.86624,2.82154,0.433367,1.86792,3.99243,-0.591064
1165,-9.89707e-38,-0.332051,-0.125232,9.88568,2.8253,0.422097,1.97168,3.99365,-0.586914
1166,-9.90641e-38,-0.373826,-0.124482,9.88351,2.85891,0.447122,-3.11499,3.99194,-0.585205
1167,-9.91575e-38,-0.345578,-0.124593,9.87534,2.92205,0.494406,-1.43921,3.99414,-0.590576
1168,-9.9251e-38,-0.340438,-0.130413,9.88084,2.78785,0.407036,-0.966309,3.99316,-0.584717
1169,-9.93444e-38,-0.337616,-0.11278,9.88396,2.847,0.413183,-5.10864,3.99219,-0.590088
1170,-9.94378e-38,-0.350947,-0.11169,9.88569,2.82343,0.396893,-5.84375,3.99268,-0.58374
1171,-9.95312e-38,-0.376489,-0.11505,9.87107,2.81139,0.426144,3.53882,3.99805,-0.587402
1172,-9.96246e-38,-0.355737,-0.12145,9.87461,2.84715,0.54525,-4.95972,3.99854,-0.586914
1173,-9.9718e-38,-0.356025,-0.116713,9.85978,2.8878,0.515512,7.10864,3.99658,-0.586914
1174,-9.98115e-38,-0.358382,-0.107296,9.88,2.74408,0.363953,3.07422,3.99243,-0.588379
1175,-9.99049e-38,-0.343298,-0.12161,9.88155,2.83032,0.438823,-7.52734,3.99609,-0.585693
1176,-9.99983e-38,-0.34759,-0.118441,9.85298,2.8492,0.469483,-2.38062,3.99194,-0.590088
1177,-1.00092e-37,-0.370819,-0.126275,9.86378,2.83396,0.473018,1.50073,3.99268,-0.586914
1178,-1.00185e-37,-0.359834,-0.11179,9.87064,2.8658,0.344358,-3.90601,3.99438,-0.586914
1179,-1.00279e-37,-0.35934,-0.100994,9.87543,2.83539,0.560568,-4.84595,3.99194,-0.588867
1180,-1.00372e-37,-0.344929,-0.123322,9.88982,2.96769,0.420176,-6.52881,3.99438,-0.587402
1181,-1.00465e-37,-0.349642,-0.105054,9.88021,2.87064,0.367539,-0.337402,3.9939,-0.590088
1182,-1.00559e-37,-0.344519,-0.101062,9.86779,2.95209,0.490359,-0.703125,3.99292,-0.583252
1183,-1.00652e-37,-0.356266,-0.118135,9.87332,2.93314,0.500528,-1.12134,3.9917,-0.587891
1184,-1.00746e-37,-0.349997,-0.1166,9.88523,2.83332,0.469509,1.91504,3.99658,-0.587891
1185,-1.00839e-37,-0.364626,-0.116765,9.89186,2.84666,0.533801,7.68555,3.99707,-0.585938
1186,-1.00932e-37,-0.341617,-0.119807,9.87493,2.81078,0.306526,-0.391113,3.99487,-0.589355
1187,-1.01026e-37,-0.360717,-0.115696,9.85828,2.94333,0.404372,7.31836,3.99658,-0.586914
1188,-1.01119e-37,-0.360802,-0.125711,9.87665,2.79216,0.512131,6.53003,3.99731,-0.590576
1189,-1.01213e-37,-0.330227,-0.11132,9.86883,2.83473,0.387646,4.75122,3.9939,-0.590088
1190,-1.01306e-37,-0.35854,-0.107172,9.88569,2.95012,0.395433,4.38306,3.99463,-0.587402
1191,-1.014e-37,-0.335302,-0.105568,9.8892,2.85266,0.249508,-2.07275,3.99731,-0.588867
1192,-1.01493e-37,-0.342378,-0.118797,9.86124,2.79651,0.495123,6.06128,3.99512,-0.586914
1193,-1.01586e-37,-0.344246,-0.128753,9.86695,2.81237,0.418613,-5.21777,3.99585,-0.588867
1194,-1.0168e-37,-0.345971,-0.107772,9.88068,2.90209,0.47727,-0.651611,3.99365,-0.585205
1195,-1.01773e-37,-0.351277,-0.11692,9.90908,2.99241,0.473146,2.02368,3.9939,-0.588379
1196,-1.01867e-37,-0.344018,-0.131121,9.90894,2.90445,0.541152,5.95996,3.99243,-0.587891
1197,-1.0196e-37,-0.344146,-0.109573,9.88888,2.92235,0.421098,-2.80469,3.99536,-0.588867
1198,-1.02053e-37,-0.361604,-0.115531,9.89053,2.8408,0.393409,-0.6521,3.9939,-0.590088
1199,-1.02147e-37,-0.363486,-0.121196,9.85622,2.85706,0.380448,7.63574,3.99463,-0.586914
1200,-1.0224e-37,-0.356555,-0.117527,9.85652,2.8418,0.396636,-1.70142,3.9939,-0.591553
1201,-1.02334e-37,-0.33917,-0.129245,9.88414,2.78878,0.327222,-0.918701,3.99707,-0.586914
1202,-1.02427e-37,-0.350552,-0.0998123,9.87846,2.92069,0.351043,-1.2876,3.9978,-0.587891
1203,-1.02521e-37,-0.346599,-0.105664,9.86739,2.83511,0.416436,-7.89355,3.99561,-0.5896
1204,-1.02614e-37,-0.3492,-0.131633,9.87167,2.84856,0.507623,-2.59497,3.99561,-0.585205
1205,-1.02707e-37,-0.353313,-0.113858,9.8935,2.87891,0.517023,-1.49097,3.99341,-0.589355
1206,-1.02801e-37,-0.364496,-0.108645,9.87624,2.82202,0.462209,6.79614,3.99487,-0.585693
1207,-1.02894e-37,-0.350495,-0.0913178,9.89399,2.82776,0.318385,4.59082,3.99609,-0.588379
1208,-1.02988e-37,-0.364022,-0.118895,9.90352,2.73176,0.435391,-3.64404,3.99512,-0.586914
1209,-1.03081e-37,-0.364519,-0.0976763,9.91064,2.93475,0.47581,1.49585,3.99634,-0.588379
1210,-1.03174e-37,-0.332425,-0.111617,9.85356,2.87138,0.359854,-3.3772,3.99194,-0.589355
1211,-1.03268e-37,-0.348026,-0.102491,9.8362,2.75899,0.357319,0.135254,3.9939,-0.586914
1212,-1.03361e-37,-0.349317,-0.116215,9.86724,2.82379,0.484775,-4.5332,3.99341,-0.590088
1213,-1.03455e-37,-0.335489,-0.10611,9.87219,2.87192,0.490154,-2.01611,3.99414,-0.587402
1214,-1.03548e-37,-0.353691,-0.109522,9.8703,2.90407,0.544764,-0.915771,3.99512,-0.588379
1215,-1.03642e-37,-0.34233,-0.107686,9.88631,2.96726,0.54648,6.00537,3.99731,-0.587402
1216,-1.03735e-37,-0.358711,-0.102274,9.90064,2.84549,0.439668,0.398682,3.99292,-0.586426
1217,-1.03828e-37,-0.360824,-0.125675,9.88258,2.9701,0.463413,-0.75708,3.9939,-0.588867
1218,-1.03922e-37,-0.353802,-0.10313,9.8807,2.85519,0.434084,-6.79004,3.99414,-0.585938
1219,-1.04015e-37,-0.355746,-0.112637,9.89897,2.90081,0.483417,-0.448486,3.99854,-0.586182
1220,-1.04109e-37,-0.358411,-0.119902,9.86559,2.90391,0.5223,1.70898,3.99365,-0.584229
1221,-1.04202e-37,-0.35682,-0.116957,9.87267,2.90465,0.41846,2.44434,3.99316,-0.587402
1222,-1.04295e-37,-0.350936,-0.0999236,9.88012,2.87522,0.442025,4.64331,3.99634,-0.588867
1223,-1.04389e-37,-0.354674,-0.112288,9.86853,2.96777,0.418665,-5.42749,3.99512,-0.584717
1224,-1.04482e-37,-0.340444,-0.124065,9.85448,2.916,0.384034,-2.22534,3.99341,-0.588379
1225,-1.04576e-37,-0.354954,-0.11333,9.84458,2.87738,0.528242,0.44873,3.99463,-0.587891
1226,-1.04669e-37,-0.356795,-0.109858,9.86192,2.71147,0.377503,0.602539,3.99707,-0.587402
1227,-1.04763e-37,-0.360311,-0.112957,9.87868,2.85335,0.352708,7.58154,3.99585,-0.586914
1228,-1.04856e-37,-0.379016,-0.116865,9.85604,2.83358,0.491768,0.498779,3.99634,-0.585938
1229,-1.04949e-37,-0.36355,-0.117387,9.89024,2.89277,0.465283,1.80884,3.9978,-0.591553
1230,-1.05043e-37,-0.351583,-0.122042,9.89113,2.83158,0.38114,2.59985,3.99438,-0.585205
1231,-1.05136e-37,-0.33996,-0.110076,9.87817,2.76068,0.440181,-7.57422,3.99194,-0.588379
1232,-1.0523e-37,-0.349342,-0.108455,9.85639,2.83014,0.437491,3.28418,3.99268,-0.588867
1233,-1.05323e-37,-0.335654,-0.110241,9.86392,2.73972,0.504088,-7.26343,3.99536,-0.584229
1234,-1.05416e-37,-0.351745,-0.131903,9.87464,2.92784,0.411672,-1.85669,3.99243,-0.587891
1235,-1.0551e-37,-0.350299,-0.108128,9.86341,2.91659,0.37092,0.236572,3.99609,-0.584229
1236,-1.05603e-37,-0.353012,-0.124701,9.88395,2.93893,0.504498,-2.11938,3.99243,-0.588379
1237,-1.05697e-37,-0.344159,-0.136877,9.86596,2.71767,0.429756,4.54248,3.99292,-0.587402
1238,-1.0579e-37,-0.345721,-0.117718,9.8762,2.91879,0.476015,-1.54517,3.99512,-0.588379
1239,-1.05884e-37,-0.341136,-0.108467,9.91143,2.85376,0.419356,6.43091,3.99316,-0.586182
1240,-1.05977e-37,-0.342226,-0.0989532,9.86612,2.74287,0.342949,7.32617,3.99048,-0.585938
1241,-1.0607e-37,-0.353618,-0.118321,9.88815,2.94336,0.504831,-0.391357,3.99512,-0.588867
1242,-1.06164e-37,-0.350858,-0.116391,9.87477,2.77184,0.35737,5.80029,3.99414,-0.584229
1243,-1.06257e-37,-0.344521,-0.114481,9.87596,2.87597,0.43096,6.0625,3.99414,-0.587402
1244,-1.06351e-37,-0.347118,-0.120711,9.8567,2.85732,0.47663,0.506348,3.99097,-0.5896
1245,-1.06444e-37,-0.359931,-0.109486,9.89507,2.83498,0.536465,-1.02002,3.99463,-0.585693
1246,-1.06537e-37,-0.341691,-0.112298,9.85026,2.81923,0.497403,4.33105,3.99414,-0.591064
1247,-1.06631e-37,-0.367039,-0.124908,9.86233,3.00424,0.503576,-3.4873,3.99561,-0.585205
1248,-1.06724e-37,-0.352706,-0.117507,9.88169,2.83967,0.489719,-2.64844,3.99609,-0.587891
1249,-1.06818e-37,-0.356131,-0.104453,9.86809,3.01408,0.46057,-1.01709,3.99219,-0.587402
1250,-1.06911e-37,-0.367927,-0.134384,9.90529,2.87169,0.453628,-7.46973,3.99243,-0.586914
1251,-1.07005e-37,-0.35023,-0.107878,9.86028,2.82392,0.479319,4.17529,3.99292,-0.591064
1252,-1.07098e-37,-0.349368,-0.114685,9.87728,2.9057,0.416231,0.081543,3.99487,-0.585938
1253,-1.07191e-37,-0.350638,-0.115861,9.8827,2.77038,0.312135,5.38257,3.99243,-0.590576
1254,-1.07285e-37,-0.342911,-0.126368,9.88691,2.73711,0.581059,5.59009,3.99414,-0.585205
1255,-1.07378e-37,-0.365138,-0.0954375,9.91378,2.91767,0.423224,-2.59595,3.99609,-0.587891
1256,-1.07472e-37,-0.33723,-0.110265,9.88227,2.92235,0.509211,7.05859,3.99487,-0.587891
1257,-1.07565e-37,-0.346631,-0.105172,9.87766,2.99131,0.486286,1.60229,3.99487,-0.583252
1258,-1.07658e-37,-0.350957,-0.108274,9.87371,2.78611,0.397584,-7.0481,3.99121,-0.587402
1259,-1.07752e-37,-0.361109,-0.119562,9.86797,2.88662,0.390822,-0.75708,3.9939,-0.584229
1260,-1.07845e-37,-0.341281,-0.103649,9.8715,2.85294,0.542894,-6.26685,3.99512,-0.589844
1261,-1.07939e-37,-0.348156,-0.11767,9.86321,2.84047,0.386852,3.17676,3.99487,-0.587402
1262,-1.08032e-37,-0.331988,-0.113518,9.8673,2.96021,0.45747,-4.11353,3.99316,-0.587402
1263,-1.08126e-37,-0.336842,-0.115812,9.87983,2.81367,0.355346,6.47998,3.99561,-0.588867
1264,-1.08219e-37,-0.356349,-0.12946,9.8672,2.89359,0.443126,4.43799,3.99268,-0.587402
1265,-1.08312e-37,-0.336469,-0.112034,9.8847,2.93032,0.44766,-0.652832,3.99414,-0.587402
1266,-1.08406e-37,-0.338817,-0.131201,9.88592,2.83626,0.396765,5.79883,3.99487,-0.584717
1267,-1.08499e-37,-0.359089,-0.124248,9.86957,3.00911,0.556136,0.0288086,3.99512,-0.588379
1268,-1.08593e-37,-0.350708,-0.122575,9.89029,2.98088,0.464079,3.48877,3.99658,-0.586182
1269,-1.08686e-37,-0.378231,-0.127092,9.88319,2.84999,0.406216,-6.47705,3.99536,-0.584229
1270,-1.08779e-37,-0.354058,-0.123311,9.89598,2.78949,0.478448,-0.757812,3.99463,-0.590576
1271,-1.08873e-37,-0.340858,-0.0945384,9.8939,2.78598,0.505932,2.75488,3.99609,-0.585693
1272,-1.08966e-37,-0.33119,-0.117439,9.88644,2.84784,0.4264,2.073,3.99634,-0.588867
1273,-1.0906e-37,-0.330901,-0.0979778,9.88593,2.76969,0.429525,4.07178,3.99219,-0.587402
1274,-1.09153e-37,-0.341192,-0.110519,9.88953,2.85773,0.410033,-4.69385,3.99609,-0.588867
1275,-1.09246e-37,-0.361089,-0.112847,9.87663,2.90437,0.464514,-4.16748,3.99438,-0.590088
1276,-1.0934e-37,-0.352789,-0.118548,9.87397,2.95017,0.50168,-4.90063,3.99365,-0.58374
1277,-1.09433e-37,-0.349763,-0.107925,9.8531,2.92248,0.388286,7.74146,3.99438,-0.588867
1278,-1.09527e-37,-0.32315,-0.124356,9.87163,2.92023,0.399377,0.134521,3.99414,-0.585938
1279,-1.0962e-37,-0.346224,-0.112545,9.89095,2.85122,0.412133,4.96265,3.99316,-0.588867
1280,-1.09714e-37,-0.341758,-0.117101,9.85767,2.92397,0.431497,-6.94751,3.99438,-0.586426
1281,-1.09807e-37,-0.333077,-0.110946,9.8522,2.90304,0.423967,0.0317383,3.99268,-0.586914
1282,-1.099e-37,-0.352973,-0.109024,9.86882,2.90563,0.481317,-7.99658,3.99438,-0.590088
1283,-1.09994e-37,-0.354271,-0.104097,9.86204,2.87435,0.528908,-0.178955,3.99316,-0.584717
1284,-1.10087e-37,-0.341612,-0.117389,9.88745,2.92294,0.361135,5.48853,3.99194,-0.587402
1285,-1.10181e-37,-0.34746,-0.121507,9.84766,2.92532,0.357344,3.64795,3.99487,-0.588379
1286,-1.10274e-37,-0.350339,-0.125805,9.91067,2.94031,0.590075,-0.863281,3.99512,-0.586914
1287,-1.10367e-37,-0.354362,-0.13688,9.87943,2.95796,0.442332,-2.17334,3.99365,-0.590576
1288,-1.10461e-37,-0.359827,-0.120759,9.8617,2.8796,0.405704,1.55249,3.99341,-0.585205
1289,-1.10554e-37,-0.355189,-0.113667,9.88131,2.90529,0.361724,-1.2832,3.99536,-0.587402
1290,-1.10648e-37,-0.354732,-0.129731,9.89367,2.85422,0.498427,-0.706055,3.99512,-0.58374
1291,-1.10741e-37,-0.36798,-0.121111,9.88474,3.00747,0.402579,-2.43652,3.99463,-0.587402
1292,-1.10835e-37,-0.340254,-0.102389,9.86069,2.871,0.370459,0.604736,3.99585,-0.587891
1293,-1.10928e-37,-0.350632,-0.11381,9.87681,2.82466,0.387031,5.01123,3.99536,-0.589355
1294,-1.11021e-37,-0.340215,-0.114984,9.84987,2.88078,0.339132,0.286865,3.99756,-0.592041
1295,-1.11115e-37,-0.335256,-0.11442,9.88856,2.91459,0.37927,4.33228,3.99341,-0.585693
1296,-1.11208e-37,-0.347637,-0.1194,9.87291,2.90504,0.414259,-1.49634,3.99731,-0.587402
1297,-1.11302e-37,-0.357586,-0.112037,9.88626,2.88591,0.517484,4.28125,3.99243,-0.586914
1298,-1.11395e-37,-0.337606,-0.114933,9.86677,2.74562,0.436236,1.86865,3.99219,-0.587891
1299,-1.11488e-37,-0.345319,-0.10923,9.89805,2.84779,0.47727,-1.85669,3.99243,-0.590576
1300,-1.11582e-37,-0.351482,-0.110264,9.89704,2.8421,0.585746,6.06519,3.99219,-0.586914
1301,-1.11675e-37,-0.351453,-0.106124,9.86054,2.87179,0.392794,3.43921,3.99463,-0.589355
1302,-1.11769e-37,-0.334512,-0.109985,9.87818,2.8316,0.488694,5.2793,3.99121,-0.58374
1303,-1.11862e-37,-0.346431,-0.115568,9.85853,2.88818,0.45683,-6.68555,3.9939,-0.587402
1304,-1.11956e-37,-0.33903,-0.109879,9.88121,2.82487,0.381396,-5.47754,3.99365,-0.587891
1305,-1.12049e-37,-0.344942,-0.10822,9.89572,2.89239,0.350608,-7.78735,3.99487,-0.585205
1306,-1.12142e-37,-0.354859,-0.107597,9.89813,2.99236,0.326069,7.06006,3.99341,-0.588379
1307,-1.12236e-37,-0.342246,-0.128709,9.86638,2.89702,0.456958,-4.58447,3.99194,-0.585205
1308,-1.12329e-37,-0.36143,-0.122888,9.86354,2.92486,0.515615,-4.21851,3.99341,-0.588379
1309,-1.12423e-37,-0.342273,-0.109731,9.88792,2.89251,0.427143,-1.5459,3.99536,-0.588867
1310,-1.12516e-37,-0.369472,-0.126138,9.84734,2.86413,0.392948,4.07031,3.99292,-0.587891
1311,-1.12609e-37,-0.354091,-0.121966,9.88802,2.865,0.452373,-2.1748,3.99512,-0.587402
1312,-1.12703e-37,-0.357787,-0.122023,9.88645,2.95168,0.417691,1.70972,3.99341,-0.587891
1313,-1.12796e-37,-0.342151,-0.130601,9.90286,2.85737,0.375454,-5.00537,3.99341,-0.591064
1314,-1.1289e-37,-0.34605,-0.102438,9.90956,2.79928,0.529293,-3.12305,3.99805,-0.585205
1315,-1.12983e-37,-0.333767,-0.0936338,9.88927,2.9116,0.455242,2.18237,3.99292,-0.586182
1316,-1.13077e-37,-0.344684,-0.116415,9.88686,2.91639,0.470098,0.817139,3.9939,-0.587891
1317,-1.1317e-37,-0.358187,-0.118433,9.8716,2.91592,0.351555,1.44434,3.99512,-0.586426
1318,-1.13263e-37,-0.340591,-0.134925,9.88429,2.8419,0.534697,-4.11304,3.99268,-0.588867
1319,-1.13357e-37,-0.320325,-0.113348,9.87529,2.78504,0.404859,-0.232666,3.99414,-0.585693
1320,-1.1345e-37,-0.356915,-0.127128,9.86971,3.02309,0.484749,-2.59717,3.99683,-0.587891
1321,-1.13544e-37,-0.347801,-0.123364,9.85712,2.85957,0.515512,0.870361,3.99316,-0.586914
1322,-1.13637e-37,-0.355383,-0.115062,9.86981,2.85199,0.417871,-4.21826,3.99316,-0.587402
1323,-1.1373e-37,-0.348358,-0.101044,9.90893,2.92553,0.429448,-5.58032,3.99194,-0.588379
1324,-1.13824e-37,-0.370518,-0.106118,9.87193,2.95824,0.381396,-0.705322,3.99463,-0.584717
1325,-1.13917e-37,-0.364858,-0.117633,9.88402,2.82702,0.393588,1.76343,3.99243,-0.590088
1326,-1.14011e-37,-0.35355,-0.122278,9.87853,2.92891,0.364388,-6.84033,3.99268,-0.584717
1327,-1.14104e-37,-0.367741,-0.104843,9.90078,2.89249,0.500579,5.22095,3.99585,-0.587402
1328,-1.14198e-37,-0.355055,-0.108298,9.84702,2.89287,0.425145,6.06152,3.99463,-0.586914
1329,-1.14291e-37,-0.346954,-0.107409,9.89878,2.88926,0.48457,-6.15845,3.99268,-0.585693
1330,-1.14384e-37,-0.338741,-0.113298,9.88555,2.78511,0.516716,-6.10864,3.99463,-0.588379
1331,-1.14478e-37,-0.350293,-0.131867,9.89353,2.8848,0.503294,-6.58325,3.99609,-0.583252
1332,-1.14571e-37,-0.356285,-0.120506,9.86102,2.87963,0.425222,2.54517,3.99609,-0.588379
1333,-1.14665e-37,-0.339633,-0.123352,9.92369,2.97991,0.32799,4.1731,3.99487,-0.585938
1334,-1.14758e-37,-0.341837,-0.108134,9.89957,2.96608,0.333856,-0.182373,3.99561,-0.587891
1335,-1.14851e-37,-0.346835,-0.129076,9.88968,2.94956,0.414669,5.53589,3.99609,-0.588379
1336,-1.14945e-37,-0.37541,-0.128449,9.87528,2.77179,0.485748,-3.22412,3.99487,-0.584229
1337,-1.15038e-37,-0.342024,-0.11112,9.88357,2.8805,0.503243,-3.32935,3.99536,-0.589355
1338,-1.15132e-37,-0.350182,-0.123196,9.86378,2.81926,0.351479,0.239014,3.99463,-0.585693
1339,-1.15225e-37,-0.36307,-0.11708,9.89094,2.96024,0.468766,-4.7981,3.99512,-0.587402
1340,-1.15319e-37,-0.351956,-0.117607,9.90253,2.92504,0.539769,1.02515,3.99512,-0.588379
1341,-1.15412e-37,-0.343347,-0.093237,9.85706,2.88006,0.408547,-7.57812,3.99512,-0.586914
1342,-1.15505e-37,-0.347668,-0.111286,9.89953,2.83345,0.554958,5.53442,3.99707,-0.590088
1343,-1.15599e-37,-0.328412,-0.11533,9.88272,2.87113,0.526372,-1.96411,3.9939,-0.584717
1344,-1.15692e-37,-0.332878,-0.105628,9.87061,2.90898,0.474094,4.69946,3.99365,-0.592041
1345,-1.15786e-37,-0.339348,-0.115342,9.86664,2.93378,0.42138,0.13501,3.99414,-0.586426
1346,-1.15879e-37,-0.35141,-0.125074,9.90193,2.87515,0.545097,4.01514,3.99536,-0.587402
1347,-1.15972e-37,-0.341685,-0.126378,9.86834,2.98898,0.460365,0.083252,3.99365,-0.589355
