timestamp_ms,acc_x,acc_y,acc_z,gyr_x,gyr_y,gyr_z,mag_x,mag_y,mag_z
0,-2.95591e+36,0,0,0,0,0,0,0,-0.636719
1,-2.95855e+36,0.195978,-0.0448694,9.70303,0.278644,-1.06888,2.04688,4.01733,-0.641357
2,-2.96119e+36,0.213934,-0.0354633,9.68102,0.236074,-0.99017,5.58936,4.01636,-0.637207
3,-2.96383e+36,0.19329,-0.0424593,9.66452,0.286892,-1.02792,2.04688,4.01733,-0.63916
4,-2.96647e+36,0.178306,-0.0330023,9.67733,0.201597,-1.04422,2.20483,4.01685,-0.637939
5,-2.96911e+36,0.21084,-0.0511865,9.68642,0.252364,-1.07872,-2.98926,4.01709,-0.633301
6,-2.97175e+36,0.206782,-0.0362495,9.65343,0.282077,-0.995139,-4.11865,4.01831,-0.636963
7,-2.97439e+36,0.221197,-0.0304881,9.69733,0.275161,-1.11811,-2.77759,4.01611,-0.631348
8,-2.97704e+36,0.193433,-0.0337718,9.65889,0.23884,-1.25243,-2.07056,4.01685,-0.638916
9,-2.97968e+36,0.206134,-0.0317428,9.70278,0.229491,-1.08031,-2.28174,4.01782,-0.631104
10,-2.98232e+36,0.185729,-0.020387,9.68815,0.224675,-0.983587,-5.89771,4.01514,-0.634521
11,-2.98496e+36,0.216412,-0.0240076,9.7082,0.206566,-1.04091,1.44482,4.0166,-0.638916
12,-2.9876e+36,0.19585,-0.0162534,9.68991,0.347777,-0.982306,1.15552,4.01709,-0.631836
13,-2.99024e+36,0.195312,-0.0433664,9.70638,0.260535,-1.08858,-1.28418,4.01709,-0.643799
14,-2.99288e+36,0.205862,-0.0376257,9.68985,0.334893,-0.94619,5.06201,4.01831,-0.638184
15,-2.99552e+36,0.207229,-0.0390779,9.69898,0.31663,-1.00351,1.75708,4.01831,-0.641602
16,-2.99816e+36,0.225185,-0.038866,9.68058,0.329028,-1.14621,-6.26709,4.0166,-0.644775
17,-3.0008e+36,0.195518,-0.0363809,9.666,0.369037,-1.0185,-4.90454,4.01758,-0.631836
18,-3.00344e+36,0.198958,-0.0287314,9.69159,0.206668,-0.980077,-6.6853,4.01538,-0.637939
19,-3.00608e+36,0.212933,-0.0395981,9.69154,0.264633,-0.895115,-3.80176,4.01685,-0.634033
20,-3.00873e+36,0.205076,-0.041039,9.70252,0.306743,-1.02641,0.917725,4.01855,-0.638916
21,-3.01137e+36,0.21758,-0.0298811,9.68414,0.273803,-1.0705,-1.57422,4.01855,-0.638184
22,-3.01401e+36,0.208158,-0.0202622,9.68413,0.347752,-1.025,5.875,4.01855,-0.635986
23,-3.01665e+36,0.200508,-0.0160855,9.66949,0.358638,-1.08907,5.45752,4.01685,-0.639404
24,-3.01929e+36,0.212936,-0.0323399,9.69506,0.242247,-1.07529,4.98657,4.01611,-0.637695
25,-3.02193e+36,0.187051,-0.0317247,9.71163,0.261765,-1.11965,-3.61816,4.01685,-0.642334
26,-3.02457e+36,0.210404,-0.0281033,9.67855,0.273855,-1.05736,-0.656006,4.01831,-0.630615
27,-3.02721e+36,0.200815,-0.0440164,9.70055,0.375543,-0.990938,6.42944,4.01562,-0.635986
28,-3.02985e+36,0.198511,-0.0454318,9.69506,0.298034,-1.08054,-6.18848,4.0166,-0.642334
29,-3.03249e+36,0.188764,-0.0523024,9.68044,0.287072,-1.04429,-6.58398,4.01855,-0.634277
30,-3.03513e+36,0.212517,-0.046749,9.70043,0.325365,-1.11686,-5.89771,4.01514,-0.638916
31,-3.03777e+36,0.197561,-0.0425157,9.69132,0.282999,-1.11158,2.38916,4.01636,-0.632568
32,-3.04042e+36,0.204753,-0.0440944,9.7224,0.263122,-1.14749,-0.995117,4.0166,-0.638916
33,-3.04306e+36,0.209617,-0.0530136,9.6894,0.394677,-1.14188,4.06421,4.01904,-0.636963
34,-3.0457e+36,0.21512,-0.0489546,9.72229,0.299904,-1.05923,1.31299,4.01709,-0.638916
35,-3.04834e+36,0.207453,-0.0430467,9.71134,0.205183,-1.00928,5.03833,4.0166,-0.636963
36,-3.05098e+36,0.197894,-0.0316658,9.68204,0.290363,-1.04112,2.95166,4.01758,-0.635254
37,-3.05362e+36,0.193461,-0.0550664,9.6766,0.277876,-1.12631,-1.80811,4.01636,-0.638428
38,-3.05626e+36,0.188053,-0.0326385,9.66742,0.33173,-1.17431,-1.21875,4.01709,-0.636475
39,-3.0589e+36,0.18217,-0.0504236,9.70226,0.250981,-1.02769,-1.75537,4.01636,-0.641846
40,-3.06154e+36,0.18929,-0.0428454,9.70401,0.345754,-1.02705,3.25635,4.01514,-0.638428
41,-3.06418e+36,0.19418,-0.0516913,9.70216,0.333971,-1.08912,6.4021,4.0166,-0.633301
42,-3.06682e+36,0.193793,-0.0495667,9.68931,0.204696,-1.08779,1.62695,4.01758,-0.637451
43,-3.06946e+36,0.188788,-0.0162284,9.70393,0.201443,-1.05669,-5.66309,4.01611,-0.632812
44,-3.07211e+36,0.206048,-0.0438454,9.67819,0.240198,-1.07521,4.69995,4.0144,-0.643311
45,-3.07475e+36,0.200867,-0.0213967,9.7038,0.275981,-1.13128,7.68799,4.01587,-0.638184
46,-3.07739e+36,0.216169,-0.0507289,9.67992,0.310432,-1.01025,-2.93652,4.01709,-0.636963
47,-3.08003e+36,0.198204,-0.0315981,9.71113,0.271165,-1.10013,6.22046,4.01489,-0.642822
48,-3.08267e+36,0.210165,-0.0480722,9.7019,0.249495,-1.05054,3.96094,4.01782,-0.635254
49,-3.08531e+36,0.197391,-0.0364516,9.72028,0.25759,-1.05062,-6.89722,4.01733,-0.641846
50,-3.08795e+36,0.209515,-0.032843,9.67438,0.29286,-0.975646,-2.9104,4.01709,-0.635742
51,-3.09059e+36,0.185005,-0.0465133,9.6929,0.280463,-0.914812,-1.23169,4.01709,-0.640625
52,-3.09323e+36,0.206621,-0.0302949,9.65971,0.285253,-1.07388,-5.40308,4.01782,-0.637451
53,-3.09587e+36,0.192129,-0.0203994,9.6836,0.25321,-1.11458,-6.55518,4.01636,-0.636719
54,-3.09851e+36,0.203795,-0.0624359,9.7092,0.278094,-1.1181,-6.07129,4.01758,-0.637939
55,-3.10115e+36,0.207257,-0.0530488,9.689,0.309215,-1.09236,7.54272,4.01636,-0.632812
56,-3.1038e+36,0.208857,-0.0399617,9.66697,0.283767,-1.05098,-4.37915,4.01709,-0.639893
57,-3.10644e+36,0.20259,-0.0577409,9.68352,0.281564,-0.990195,-2.99048,4.01807,-0.633545
58,-3.10908e+36,0.184903,-0.0294492,9.70558,0.160563,-1.01507,3.38794,4.01489,-0.636475
59,-3.11172e+36,0.195264,-0.0385539,9.70915,0.371176,-1.10149,4.00269,4.01587,-0.638428
60,-3.11436e+36,0.192754,-0.0381708,9.67988,0.256117,-1.07016,7.27783,4.0188,-0.634766
61,-3.117e+36,0.20934,-0.038188,9.72181,0.2872,-1.03143,4.09326,4.01685,-0.640381
62,-3.11964e+36,0.211966,-0.063534,9.73465,0.290888,-1.02155,-2.83228,4.01758,-0.631836
63,-3.12228e+36,0.171117,-0.0584508,9.69841,0.223471,-1.13048,7.94897,4.01685,-0.634033
64,-3.12492e+36,0.182026,-0.0438325,9.68361,0.296318,-0.993755,5.53418,4.01782,-0.636475
65,-3.12756e+36,0.198375,-0.0384247,9.69257,0.293065,-1.07416,5.06396,4.0166,-0.63623
66,-3.1302e+36,0.192786,-0.0378633,9.71642,0.219245,-1.10738,1.86255,4.01807,-0.636963
67,-3.13284e+36,0.184108,-0.0593797,9.67994,0.257564,-1.0278,6.97925,4.01611,-0.630615
68,-3.13549e+36,0.195533,-0.0428619,9.71272,0.226584,-1.04685,-1.45483,4.01733,-0.639404
69,-3.13813e+36,0.202938,-0.0300058,9.71991,0.186536,-1.00679,6.08472,4.01831,-0.636475
70,-3.14077e+36,0.205875,-0.0371106,9.7089,0.363914,-1.04104,-2.83057,4.01611,-0.639404
71,-3.14341e+36,0.20756,-0.0257559,9.69968,0.324174,-0.963351,1.53711,4.01611,-0.637451
72,-3.14605e+36,0.186437,-0.0356908,9.69444,0.273112,-0.908255,-5.24487,4.01733,-0.639648
73,-3.14869e+36,0.19277,-0.0483888,9.69074,0.294705,-0.987301,7.37158,4.01733,-0.642334
74,-3.15133e+36,0.197831,-0.0518543,9.70167,0.246166,-1.04877,5.22021,4.01758,-0.635254
75,-3.15397e+36,0.19453,-0.0348955,9.71813,0.226033,-0.992654,3.48853,4.01807,-0.637451
76,-3.15661e+36,0.210322,-0.0316669,9.68312,0.179031,-1.02639,-3.46045,4.0166,-0.63501
77,-3.15925e+36,0.19751,-0.0235843,9.6869,0.260177,-1.14923,0.605957,4.01611,-0.63623
78,-3.16189e+36,0.19303,-0.0323906,9.67232,0.143094,-1.0208,-3.19824,4.0166,-0.642334
79,-3.16453e+36,0.193012,-0.024815,9.68329,0.205465,-1.03008,6.40088,4.01733,-0.635742
80,-3.16718e+36,0.190701,-0.0317497,9.69615,0.20818,-1.05313,2.28369,4.01709,-0.640869
81,-3.16982e+36,0.189457,-0.051608,9.68157,0.247472,-1.12121,-4.35132,4.01587,-0.634521
82,-3.17246e+36,0.206607,-0.035338,9.71242,0.251237,-1.02444,-2.14941,4.0166,-0.635986
83,-3.1751e+36,0.199297,-0.025591,9.71613,0.220346,-0.996086,-0.993896,4.01587,-0.637451
84,-3.17774e+36,0.195934,-0.0490374,9.6961,0.278721,-1.22664,1.26025,4.01733,-0.63623
85,-3.18038e+36,0.195271,-0.0614282,9.69979,0.304899,-1.03871,-7.39429,4.01611,-0.641357
86,-3.18302e+36,0.196752,-0.0538757,9.67961,0.235817,-1.04066,1.60303,4.01587,-0.634277
87,-3.18566e+36,0.204306,-0.0428971,9.69594,0.159666,-1.02424,-6.58276,4.01709,-0.634033
88,-3.1883e+36,0.204891,-0.064567,9.69966,0.325006,-1.02931,-4.24731,4.0166,-0.638916
89,-3.19094e+36,0.219528,-0.0520027,9.69024,0.274725,-1.11496,0.996582,4.01831,-0.632324
90,-3.19358e+36,0.220391,-0.0608725,9.66827,0.339811,-1.00185,0.0292969,4.01562,-0.638916
91,-3.19622e+36,0.204925,-0.0340644,9.69403,0.298649,-1.03202,3.56885,4.0166,-0.634766
92,-3.19887e+36,0.201998,-0.0411029,9.66846,0.145924,-1.08925,-6.49219,4.01855,-0.641846
93,-3.20151e+36,0.192992,-0.025845,9.65754,0.246844,-1.02433,3.79053,4.01758,-0.639404
94,-3.20415e+36,0.19539,-0.0512781,9.66491,0.217683,-1.2042,-4.61401,4.01611,-0.637695
95,-3.20679e+36,0.184053,-0.0649799,9.70175,0.242272,-1.0833,-1.10107,4.01733,-0.637939
96,-3.20943e+36,0.193086,-0.0282821,9.72896,0.238686,-1.09306,6.61035,4.01733,-0.63916
97,-3.21207e+36,0.196771,-0.0502666,9.69416,0.239557,-1.0195,-1.64917,4.01562,-0.639893
98,-3.21471e+36,0.177428,-0.0287909,9.7127,0.298086,-1.05026,7.18945,4.01611,-0.636719
99,-3.21735e+36,0.200933,-0.0258974,9.70866,0.185434,-1.05577,7.00415,4.01733,-0.637939
100,-3.21999e+36,0.200172,-0.0401483,9.72521,0.273726,-1.07413,-5.50781,4.01758,-0.636475
101,-3.22263e+36,0.210932,-0.0384929,9.72867,0.201046,-1.02819,0.0654297,4.01782,-0.632812
102,-3.22527e+36,0.20365,-0.0581698,9.70139,0.216568,-0.990861,-0.930664,4.01733,-0.638428
103,-3.22791e+36,0.201813,-0.0504491,9.70322,0.21133,-1.04178,2.86133,4.01611,-0.632812
104,-3.23056e+36,0.216203,-0.0454489,9.69564,0.152059,-1.05346,-4.19409,4.01611,-0.641357
105,-3.2332e+36,0.212756,-0.0376252,9.71214,0.254823,-1.04263,-1.96704,4.01758,-0.636963
106,-3.23584e+36,0.180409,-0.0522159,9.7054,0.28273,-1.1171,7.17358,4.01807,-0.638916
107,-3.23848e+36,0.20062,-0.0473789,9.7087,0.18765,-1.17222,-6.09814,4.01758,-0.643311
108,-3.24112e+36,0.196796,-0.0450182,9.70327,0.302696,-1.11307,5.01318,4.01538,-0.632324
109,-3.24376e+36,0.219133,-0.0311294,9.70099,0.218425,-1.08791,3.04517,4.01611,-0.639404
110,-3.2464e+36,0.211132,-0.0653789,9.67745,0.230733,-1.07824,7.80469,4.01709,-0.635254
111,-3.24904e+36,0.212708,-0.0375977,9.70478,0.120016,-1.0903,-3.64331,4.01611,-0.632568
112,-3.25168e+36,0.217259,-0.0137013,9.70644,0.321395,-1.08535,4.27539,4.01831,-0.636475
113,-3.25432e+36,0.195773,-0.0287441,9.69222,0.269808,-1.06138,-7.49878,4.01587,-0.634277
114,-3.25696e+36,0.179303,-0.0587267,9.70363,0.143837,-1.02833,2.54468,4.01782,-0.639893
115,-3.2596e+36,0.199049,-0.0209863,9.69579,0.319909,-1.02139,-3.43652,4.01831,-0.634277
116,-3.26225e+36,0.193234,-0.0514604,9.69052,0.30349,-1.02262,-1.57446,4.01831,-0.638916
117,-3.26489e+36,0.186724,-0.0323319,9.70155,0.242823,-0.999813,-4.18286,4.01733,-0.638184
118,-3.26753e+36,0.195508,-0.0234312,9.67206,0.279157,-1.23204,-7.31689,4.01733,-0.636963
119,-3.27017e+36,0.20008,-0.0324956,9.66102,0.303439,-1.06706,3.83032,4.01758,-0.640381
120,-3.27281e+36,0.201822,-0.0339448,9.6793,0.248829,-1.08848,-1.49438,4.01758,-0.634277
121,-3.27545e+36,0.186203,-0.0454752,9.68698,0.354399,-0.994344,5.30884,4.01978,-0.641357
122,-3.27809e+36,0.208785,-0.0609396,9.68478,0.317181,-1.09541,-3.68433,4.01709,-0.637695
123,-3.28073e+36,0.185906,-0.0390767,9.6888,0.209063,-1.01867,4.9458,4.0166,-0.634033
124,-3.28337e+36,0.176294,-0.0489974,9.71833,0.353041,-1.05378,5.07593,4.01758,-0.637939
125,-3.28601e+36,0.1815,-0.0434092,9.70539,0.303951,-1.1146,-2.72729,4.01782,-0.635254
126,-3.28865e+36,0.220208,-0.0305889,9.69358,0.308805,-1.04276,-6.98926,4.01709,-0.63501
127,-3.29129e+36,0.19858,-0.0437146,9.67941,0.232603,-1.01267,-6.28076,4.01709,-0.634766
128,-3.29394e+36,0.211901,-0.0367223,9.70476,0.204645,-1.02162,-3.4873,4.01733,-0.637451
129,-3.29658e+36,0.20511,-0.0524802,9.70497,0.26813,-1.05984,7.25537,4.01587,-0.635742
130,-3.29922e+36,0.19631,-0.0278699,9.67207,0.381703,-1.08428,-7.67163,4.01758,-0.635986
131,-3.30186e+36,0.19728,-0.0108045,9.68663,0.347009,-1.0227,-4.79834,4.01685,-0.639404
132,-3.3045e+36,0.188869,-0.026257,9.6997,0.31453,-1.0676,2.41455,4.01709,-0.637695
133,-3.30714e+36,0.191767,-0.0297593,9.6905,0.246614,-1.0295,-1.06055,4.0166,-0.636475
134,-3.30978e+36,0.182697,-0.0526974,9.69264,0.238866,-1.12275,-0.732666,4.0166,-0.636719
135,-3.31242e+36,0.203004,-0.0480362,9.70134,0.264787,-1.11512,-7.21313,4.01831,-0.63916
136,-3.31506e+36,0.195261,-0.0250314,9.71606,0.316349,-1.0103,0.657227,4.01709,-0.637451
137,-3.3177e+36,0.217727,-0.0281228,9.68079,0.221115,-1.02693,-4.22241,4.01758,-0.633789
138,-3.32034e+36,0.233458,-0.0360661,9.68416,0.300442,-1.08376,5.40576,4.01636,-0.638428
139,-3.32298e+36,0.189336,-0.0364375,9.70343,0.244193,-0.92265,0.288818,4.01782,-0.631104
140,-3.32563e+36,0.203971,-0.0517451,9.68488,0.372431,-1.06295,1.87646,4.01758,-0.636475
141,-3.32827e+36,0.189617,-0.0519678,9.71634,0.287725,-1.08009,0.513184,4.01685,-0.637695
142,-3.33091e+36,0.169051,-0.0484403,9.70397,0.303541,-1.16084,-7.13354,4.01733,-0.636475
143,-3.33355e+36,0.191426,-0.042075,9.71627,0.264224,-1.03633,-6.37427,4.01855,-0.641846
144,-3.33619e+36,0.192282,-0.0455989,9.69612,0.178121,-1.12239,6.9917,4.01685,-0.633789
145,-3.33883e+36,0.218954,-0.0232248,9.68809,0.296049,-1.10478,4.55078,4.01807,-0.637451
146,-3.34147e+36,0.218015,-0.0336985,9.68816,0.342526,-1.14114,-2.25293,4.01587,-0.635254
147,-3.34411e+36,0.211159,-0.0384877,9.65721,0.309279,-1.06939,2.91357,4.0166,-0.638428
148,-3.34675e+36,0.181822,-0.046862,9.70007,0.197038,-1.01988,4.27881,4.01562,-0.639893
149,-3.34939e+36,0.186652,-0.0451209,9.68164,0.278491,-1.14557,-3.9585,4.01611,-0.633789
150,-3.35203e+36,0.180678,-0.0294184,9.70918,0.289799,-1.02443,-2.03149,4.01685,-0.636475
151,-3.35467e+36,0.194986,-0.0669746,9.66693,0.319755,-1.03187,-7.55396,4.01782,-0.633301
152,-3.35732e+36,0.187542,-0.0253273,9.71086,0.274405,-1.08953,-3.26416,4.01685,-0.638428
153,-3.35996e+36,0.205129,-0.0334369,9.7178,0.304092,-1.04625,5.46973,4.01733,-0.638672
154,-3.3626e+36,0.204065,-0.0331685,9.68853,0.224727,-0.979796,4.0166,4.01562,-0.636475
155,-3.36524e+36,0.199605,-0.0326643,9.67033,0.201674,-1.11033,3.15186,4.01514,-0.638916
156,-3.36788e+36,0.201395,-0.0305583,9.6776,0.256501,-0.999096,3.82056,4.01514,-0.636719
157,-3.37052e+36,0.2085,-0.0288014,9.68476,0.2919,-0.972073,-6.25488,4.01709,-0.639893
158,-3.37316e+36,0.201022,-0.0295958,9.69594,0.277108,-1.17521,-1.04639,4.01587,-0.634277
159,-3.3758e+36,0.19018,-0.0413515,9.67614,0.336981,-1.10808,6.12476,4.01807,-0.638916
160,-3.37844e+36,0.201593,-0.0546128,9.66861,0.297048,-1.0775,-1.53149,4.01587,-0.638916
161,-3.38108e+36,0.188608,-0.047328,9.73301,0.189289,-1.00761,1.08936,4.01758,-0.638672
162,-3.38372e+36,0.204973,-0.0557944,9.69419,0.308075,-1.05326,-6.81763,4.01636,-0.643799
163,-3.38636e+36,0.205166,-0.0551839,9.71617,0.309919,-1.0468,4.09399,4.01636,-0.635986
164,-3.38901e+36,0.213894,-0.0500007,9.69578,0.344153,-1.18101,-7.59106,4.01611,-0.637939
165,-3.39165e+36,0.195432,-0.027837,9.70713,0.273381,-1.12275,-3.34033,4.01514,-0.637695
166,-3.39429e+36,0.193839,-0.0384292,9.6926,0.31371,-1.00254,5.58862,4.01685,-0.637939
167,-3.39693e+36,0.198431,-0.0455522,9.6962,0.437325,-1.04486,-0.209229,4.01733,-0.637451
168,-3.39957e+36,0.171269,-0.0630638,9.70619,0.254964,-1.06772,-1.63696,4.01611,-0.634277
169,-3.40221e+36,0.201208,-0.0394763,9.6723,0.344153,-1.11851,3.92261,4.01733,-0.641846
170,-3.40485e+36,0.230833,-0.0500652,9.7247,0.295921,-1.03316,1.90356,4.0166,-0.633301
171,-3.40749e+36,0.227833,-0.044314,9.68079,0.207309,-1.0114,-0.445068,4.01733,-0.639893
172,-3.41013e+36,0.211076,-0.0426123,9.68674,0.297035,-1.04552,-5.38013,4.02026,-0.640869
173,-3.41277e+36,0.192254,-0.0241214,9.69631,0.20631,-1.03927,4.77441,4.01758,-0.635742
174,-3.41541e+36,0.205338,-0.037651,9.69055,0.326492,-1.05244,-2.5686,4.0166,-0.642334
175,-3.41805e+36,0.180435,-0.0443691,9.68946,0.338454,-1.00853,-6.29395,4.01709,-0.634277
176,-3.4207e+36,0.193401,-0.0666898,9.7094,0.45893,-0.972534,0.487549,4.01636,-0.640869
177,-3.42334e+36,0.191484,-0.0479132,9.66906,0.350454,-1.09254,5.57397,4.01782,-0.63501
178,-3.42598e+36,0.19261,-0.0602533,9.69111,0.197396,-1.07677,5.4314,4.0166,-0.634521
179,-3.42862e+36,0.193409,-0.0249824,9.69454,0.319397,-1.0917,7.18921,4.01611,-0.640381
180,-3.43126e+36,0.216238,-0.046805,9.67023,0.306743,-0.985892,2.62402,4.01733,-0.634766
181,-3.4339e+36,0.233577,-0.0271769,9.71908,0.276083,-1.1425,7.26855,4.01587,-0.637451
182,-3.43654e+36,0.195923,-0.027384,9.70003,0.368038,-1.01514,2.99341,4.01562,-0.637695
183,-3.43918e+36,0.199583,-0.0343317,9.73479,0.194719,-1.15521,-0.0644531,4.01709,-0.635986
184,-3.44182e+36,0.190592,-0.0480111,9.72783,0.207091,-1.13075,-4.73535,4.0188,-0.635498
185,-3.44446e+36,0.1854,-0.0416639,9.72978,0.273662,-1.08946,1.06226,4.01807,-0.633301
186,-3.4471e+36,0.187133,-0.0507711,9.70416,0.291964,-0.955821,0.36792,4.01758,-0.645264
187,-3.44974e+36,0.20925,-0.0412789,9.69246,0.284933,-1.04132,4.50146,4.01562,-0.633057
188,-3.45239e+36,0.201008,-0.0438721,9.68176,0.322022,-1.12016,-2.36963,4.01489,-0.638916
189,-3.45503e+36,0.200199,-0.0120163,9.69992,0.201533,-1.03731,-2.89795,4.01733,-0.636475
190,-3.45767e+36,0.213658,-0.0327408,9.7308,0.259831,-1.00916,2.35107,4.01538,-0.637939
191,-3.46031e+36,0.191198,-0.0453629,9.70959,0.170834,-1.03261,0.10498,4.01782,-0.641357
192,-3.46295e+36,0.191728,-0.055962,9.71149,0.421201,-1.04364,0.591064,4.01758,-0.633301
193,-3.46559e+36,0.211658,-0.0445068,9.68152,0.394818,-1.04902,6.09888,4.01758,-0.640381
194,-3.46823e+36,0.171776,-0.0437854,9.7139,0.38648,-1.0288,1.8623,4.01831,-0.633789
195,-3.47087e+36,0.198517,-0.0200049,9.69097,0.402976,-0.95121,-2.62085,4.01636,-0.638428
196,-3.47351e+36,0.195211,-0.0266494,9.68014,0.303349,-0.986058,-7.67041,4.01685,-0.639404
197,-3.47615e+36,0.21134,-0.0353431,9.6449,0.257346,-1.08754,-6.43726,4.01636,-0.635498
198,-3.47879e+36,0.19085,-0.0491275,9.68779,0.387338,-1.13629,6.99341,4.01562,-0.638916
199,-3.48143e+36,0.184745,-0.0553137,9.69903,0.275737,-1.04728,3.2937,4.0166,-0.632812
200,-3.48408e+36,0.20334,-0.0218268,9.67809,0.261265,-1.05673,7.09814,4.01562,-0.637939
201,-3.48672e+36,0.190443,-0.0458098,9.7025,0.19349,-1.06633,0.460205,4.01733,-0.633057
202,-3.48936e+36,0.210828,-0.0470924,9.72385,0.274764,-0.996406,-0.195068,4.01636,-0.636475
203,-3.492e+36,0.186353,-0.0593544,9.69726,0.308511,-1.13566,3.96167,4.01733,-0.634521
204,-3.49464e+36,0.198037,-0.0268684,9.69119,0.344243,-1.02101,2.20532,4.0166,-0.636719
205,-3.49728e+36,0.201814,-0.0360452,9.67833,0.320908,-1.02127,3.33179,4.01782,-0.640869
206,-3.49992e+36,0.21135,-0.0237159,9.66879,0.26585,-0.977119,2.10962,4.01978,-0.633301
207,-3.50256e+36,0.201936,-0.0390234,9.66006,0.288224,-1.12516,4.53979,4.01636,-0.636963
208,-3.5052e+36,0.185204,-0.0678622,9.69381,0.358394,-1.12817,-5.15381,4.01758,-0.638428
209,-3.50784e+36,0.188639,-0.0308026,9.7008,0.301018,-1.13032,5.94092,4.01782,-0.631592
210,-3.51048e+36,0.182455,-0.0280511,9.68452,0.294948,-0.911777,-1.58643,4.01758,-0.639893
211,-3.51312e+36,0.196591,-0.0473655,9.68055,0.316797,-1.1495,3.47729,4.0166,-0.635254
212,-3.51577e+36,0.192515,-0.0334263,9.69527,0.342232,-1.02889,2.37402,4.01807,-0.637939
213,-3.51841e+36,0.216748,-0.0296799,9.70544,0.252813,-1.06576,-4.23535,4.01733,-0.637207
214,-3.52105e+36,0.231984,-0.0529483,9.69046,0.331038,-1.05143,3.58081,4.01782,-0.635742
215,-3.52369e+36,0.220084,-0.0294678,9.66139,0.365233,-1.10104,-1.61157,4.0166,-0.641357
216,-3.52633e+36,0.212899,-0.0131994,9.68719,0.368102,-0.945204,4.39478,4.01685,-0.631836
217,-3.52897e+36,0.214843,-0.0310818,9.70377,0.34715,-1.013,1.66675,4.01733,-0.639404
218,-3.53161e+36,0.19666,-0.045296,9.71184,0.242055,-1.01759,-4.02539,4.01733,-0.634766
219,-3.53425e+36,0.189952,-0.0646429,9.69208,0.311367,-1.07038,-5.78271,4.01709,-0.636475
220,-3.53689e+36,0.201248,-0.059746,9.69717,0.241107,-1.03239,-1.29736,4.01709,-0.637939
221,-3.53953e+36,0.187865,-0.0467613,9.7104,0.305091,-1.05709,2.8208,4.01685,-0.634766
222,-3.54217e+36,0.185268,-0.040848,9.68298,0.225418,-1.07234,0.760254,4.01831,-0.636475
223,-3.54481e+36,0.224759,-0.0350183,9.6999,0.347137,-1.15705,-6.97852,4.01929,-0.637695
224,-3.54746e+36,0.23058,-0.0372634,9.66859,0.297176,-1.07655,-2.6604,4.01636,-0.639893
225,-3.5501e+36,0.211561,-0.0468584,9.74448,0.325916,-1.02065,-7.59106,4.01611,-0.638428
226,-3.55274e+36,0.225401,-0.0431784,9.66704,0.258345,-1.12181,-7.75049,4.01758,-0.635498
227,-3.55538e+36,0.200237,-0.045307,9.70095,0.234024,-1.08935,-6.5835,4.01782,-0.640869
228,-3.55802e+36,0.19387,-0.0443489,9.68471,0.352119,-1.08731,-4.44556,4.01758,-0.635742
229,-3.56066e+36,0.180022,-0.0366708,9.698,0.369409,-1.10258,-6.49292,4.01904,-0.639404
230,-3.5633e+36,0.179934,-0.0490458,9.68897,0.33465,-1.05066,-1.55884,4.01636,-0.630859
231,-3.56594e+36,0.201067,-0.0395903,9.69732,0.334317,-1.12566,-0.537598,4.01807,-0.63501
232,-3.56858e+36,0.216473,-0.0516416,9.70971,0.261713,-1.06122,3.9873,4.01782,-0.638916
233,-3.57122e+36,0.191037,-0.0542988,9.6887,0.244846,-0.999275,7.3042,4.0188,-0.63623
234,-3.57386e+36,0.205198,-0.055432,9.68638,0.207322,-1.05727,-0.639893,4.01587,-0.644775
235,-3.5765e+36,0.194853,-0.0518282,9.70692,0.294026,-1.07812,-3.00146,4.0166,-0.631836
236,-3.57915e+36,0.176109,-0.0694668,9.71327,0.362326,-0.943782,-0.759277,4.01685,-0.641846
237,-3.58179e+36,0.174888,-0.0322867,9.68376,0.316387,-1.05803,-6.83105,4.0166,-0.633301
238,-3.58443e+36,0.186185,-0.0458236,9.69079,0.270256,-1.04915,5.05176,4.01611,-0.635498
239,-3.58707e+36,0.223094,-0.0401632,9.68756,0.363184,-1.05063,1.53589,4.01709,-0.639893
240,-3.58971e+36,0.216637,-0.0427692,9.67869,0.219514,-1.16946,0.775879,4.01636,-0.635254
241,-3.59235e+36,0.220451,-0.0224096,9.68207,0.346663,-0.961161,-6.96289,4.01685,-0.636475
242,-3.59499e+36,0.215727,-0.0434518,9.68062,0.363184,-0.993627,-2.68555,4.01562,-0.631836
243,-3.59763e+36,0.19339,-0.0404907,9.67964,0.295102,-1.03385,-3.76245,4.01685,-0.635986
244,-3.60027e+36,0.197075,-0.0550523,9.6833,0.317629,-1.04414,2.0249,4.0144,-0.635986
245,-3.60291e+36,0.181723,-0.054743,9.67843,0.303939,-1.08239,6.62622,4.01562,-0.632324
246,-3.60555e+36,0.204418,-0.0345205,9.69209,0.267605,-1.09014,3.17676,4.01587,-0.640869
247,-3.60819e+36,0.202853,-0.0283602,9.69212,0.276916,-1.03615,-6.59546,4.01685,-0.629639
248,-3.61084e+36,0.211311,-0.050813,9.70116,0.317616,-1.04866,5.41919,4.01587,-0.639893
249,-3.61348e+36,0.229055,-0.0226779,9.70761,0.413311,-1.01624,2.56006,4.01611,-0.635986
250,-3.61612e+36,0.198883,-0.0206385,9.6978,0.335546,-1.01933,-6.15088,4.01831,-0.636475
251,-3.61876e+36,0.188463,-0.0559111,9.68754,0.305898,-1.04073,-0.341064,4.01782,-0.640381
252,-3.6214e+36,0.196584,-0.0323598,9.69439,0.183692,-1.02111,0.5,4.0166,-0.632324
253,-3.62404e+36,0.192022,-0.0369556,9.69647,0.273509,-1.15382,1.84888,4.01831,-0.642822
254,-3.62668e+36,0.203762,-0.0599132,9.69622,0.310393,-0.967591,7.01782,4.01685,-0.635498
255,-3.62932e+36,0.18367,-0.0569539,9.7062,0.313902,-0.997252,4.60425,4.01709,-0.637939
256,-3.63196e+36,0.194551,-0.0416187,9.66719,0.287264,-1.03232,1.30127,4.01587,-0.63501
257,-3.6346e+36,0.205666,-0.0493928,9.70166,0.245512,-1.11994,-4.18164,4.0166,-0.631348
258,-3.63724e+36,0.204143,-0.056219,9.69447,0.296152,-1.00757,0.905029,4.01782,-0.643799
259,-3.63988e+36,0.226416,-0.0509694,9.69173,0.325864,-1.05948,6.70532,4.01514,-0.634033
260,-3.64253e+36,0.215358,-0.0378681,9.71225,0.245922,-0.999634,-5.62598,4.01782,-0.637451
261,-3.64517e+36,0.205714,-0.0292823,9.68695,0.230912,-1.09069,6.99023,4.01807,-0.634521
262,-3.64781e+36,0.19675,-0.0405896,9.69112,0.301864,-0.972201,-4.23413,4.0166,-0.638428
263,-3.65045e+36,0.20354,-0.0444524,9.70007,0.305911,-0.99738,7.72729,4.01587,-0.639404
264,-3.65309e+36,0.202156,-0.0382491,9.7056,0.218566,-0.987032,-1.42749,4.01636,-0.634033
265,-3.65573e+36,0.197487,-0.033952,9.68013,0.23364,-1.13187,-7.79028,4.01831,-0.639893
266,-3.65837e+36,0.187216,-0.0561229,9.68446,0.340477,-1.00067,7.03027,4.01733,-0.636719
267,-3.66101e+36,0.194593,-0.0285304,9.70227,0.323482,-1.05773,1.14404,4.01587,-0.63501
268,-3.66365e+36,0.191101,-0.0510855,9.74114,0.254068,-1.06416,0.852295,4.01831,-0.635986
269,-3.66629e+36,0.195672,-0.0519833,9.68417,0.225072,-1.089,5.10254,4.01733,-0.633789
270,-3.66893e+36,0.184025,-0.0425859,9.69562,0.236189,-1.08654,-4.36548,4.01685,-0.639893
271,-3.67157e+36,0.203119,-0.0517658,9.70408,0.255297,-0.992437,3.16211,4.01709,-0.632812
272,-3.67422e+36,0.20518,-0.0390081,9.68192,0.191095,-1.00838,-3.67017,4.01636,-0.637451
273,-3.67686e+36,0.197547,-0.0264076,9.69317,0.286393,-1.09469,2.323,4.01685,-0.637939
274,-3.6795e+36,0.206989,-0.0215596,9.69277,0.295383,-1.07525,-3.00269,4.01758,-0.636475
275,-3.68214e+36,0.215835,-0.036857,9.69439,0.34341,-1.09633,-0.537598,4.01758,-0.640381
276,-3.68478e+36,0.210233,-0.0207667,9.69637,0.348507,-1.08734,-2.24072,4.01611,-0.632812
277,-3.68742e+36,0.199476,-0.0499867,9.71545,0.295307,-1.01582,0.957031,4.01855,-0.637939
278,-3.69006e+36,0.183254,-0.0584951,9.71627,0.262648,-1.08333,-2.81787,4.01685,-0.634033
279,-3.6927e+36,0.182696,-0.062194,9.67971,0.224048,-1.14784,-5.80981,4.01807,-0.633057
280,-3.69534e+36,0.179902,-0.0515807,9.72195,0.217055,-0.881501,-2.94971,4.01733,-0.640381
281,-3.69798e+36,0.190116,-0.0601223,9.69777,0.37279,-1.05714,-4.49854,4.01807,-0.629883
282,-3.70062e+36,0.21054,-0.0181522,9.66905,0.42941,-1.0404,3.57007,4.01562,-0.640869
283,-3.70326e+36,0.203618,-0.0330013,9.69152,0.235433,-1.033,7.97754,4.01514,-0.635254
284,-3.70591e+36,0.236071,-0.00899063,9.69722,0.266324,-1.06855,1.46924,4.01782,-0.641357
285,-3.70855e+36,0.222378,-0.025216,9.69619,0.285483,-0.977772,7.29224,4.01782,-0.635498
286,-3.71119e+36,0.204467,-0.0151141,9.68777,0.288416,-1.15757,0.854492,4.0166,-0.637451
287,-3.71383e+36,0.194776,-0.0612194,9.69783,0.259908,-1.00916,-4.44482,4.01733,-0.637451
288,-3.71647e+36,0.171944,-0.0467276,9.69144,0.311456,-1.05075,2.28442,4.01636,-0.634766
289,-3.71911e+36,0.193547,-0.0595735,9.72727,0.326876,-1.03502,-6.55615,4.01709,-0.643799
290,-3.72175e+36,0.169493,-0.0470705,9.69898,0.255361,-1.10256,-6.97632,4.01733,-0.632324
291,-3.72439e+36,0.197841,-0.0463655,9.71789,0.235395,-1.11632,-3.81421,4.0166,-0.637451
292,-3.72703e+36,0.201649,-0.0450932,9.6829,0.254337,-1.07977,-1.04736,4.0166,-0.636475
293,-3.72967e+36,0.20531,-0.0167035,9.72836,0.25417,-1.19458,-7.8811,4.01733,-0.635986
294,-3.73231e+36,0.218307,-0.0460973,9.69873,0.258268,-1.05614,-6.98584,4.01489,-0.639404
295,-3.73495e+36,0.213926,-0.0363501,9.6659,0.23227,-0.999326,1.64087,4.01709,-0.634521
296,-3.7376e+36,0.208493,-0.0456297,9.70659,0.278427,-1.05004,-1.61206,4.01709,-0.634521
297,-3.74024e+36,0.173969,-0.0427179,9.68072,0.246768,-0.961238,-4.70557,4.01611,-0.638428
298,-3.74288e+36,0.215969,-0.0224065,9.66211,0.248253,-0.919718,2.61035,4.01758,-0.633545
299,-3.74552e+36,0.199256,-0.0379894,9.67774,0.159295,-1.03547,-7.12061,4.01709,-0.640381
300,-3.74816e+36,0.2008,-0.0360592,9.67403,0.188982,-1.02819,-1.05884,4.01562,-0.637207
301,-3.7508e+36,0.183776,-0.0439242,9.70061,0.325045,-0.965157,-5.49268,4.01587,-0.641846
302,-3.75344e+36,0.203671,-0.0389905,9.68865,0.205311,-0.933562,6.42822,4.01685,-0.637207
303,-3.75608e+36,0.178613,-0.0554614,9.68822,0.249303,-1.03319,-6.54419,4.01782,-0.635498
304,-3.75872e+36,0.204192,-0.0660057,9.68163,0.295998,-1.15132,4.05176,4.01831,-0.636963
305,-3.76136e+36,0.207583,-0.0476897,9.66668,0.271383,-1.03862,-6.90942,4.01636,-0.635742
306,-3.764e+36,0.208474,-0.0286969,9.67751,0.220385,-1.11994,-3.50146,4.01782,-0.639893
307,-3.76664e+36,0.184086,-0.0338641,9.69343,0.191594,-0.972432,-0.220215,4.01587,-0.634277
308,-3.76929e+36,0.201578,-0.041253,9.70554,0.253837,-1.00263,-0.69458,4.01709,-0.640381
309,-3.77193e+36,0.207574,-0.0290331,9.68867,0.160934,-0.983113,-7.7229,4.01685,-0.640869
310,-3.77457e+36,0.211186,-0.0273478,9.69219,0.118991,-0.940888,-0.207764,4.01636,-0.635498
311,-3.77721e+36,0.201713,-0.0421345,9.70566,0.178711,-0.947714,0.930908,4.01831,-0.642334
312,-3.77985e+36,0.197773,-0.035901,9.693,0.137728,-0.943641,4.52612,4.01709,-0.635254
313,-3.78249e+36,0.208615,-0.0481242,9.69629,0.22935,-0.996227,4.34253,4.01709,-0.639404
314,-3.78513e+36,0.194027,-0.0437362,9.69701,0.235907,-1.07425,7.28101,4.01636,-0.638184
315,-3.78777e+36,0.185151,-0.0371865,9.65526,0.160998,-1.00987,-0.495361,4.01587,-0.637939
316,-3.79041e+36,0.195829,-0.046397,9.72271,0.344294,-1.03753,-0.627686,4.0166,-0.636963
317,-3.79305e+36,0.190354,-0.0449202,9.73034,0.283281,-0.98684,-1.91382,4.01733,-0.633789
318,-3.79569e+36,0.21778,-0.0235223,9.66832,0.239442,-0.995766,6.07471,4.01611,-0.639404
319,-3.79833e+36,0.20236,-0.0293116,9.72235,0.105121,-0.977196,-4.94409,4.01758,-0.63623
320,-3.80098e+36,0.188982,-0.0330918,9.69743,0.0672118,-0.979399,-2.21582,4.01758,-0.634521
321,-3.80362e+36,0.189784,-0.0372145,9.65897,0.211855,-1.05801,3.9502,4.01611,-0.638916
322,-3.80626e+36,0.200719,-0.0401072,9.67315,0.0976927,-0.974097,-7.09204,4.01587,-0.636963
323,-3.8089e+36,0.194528,-0.0468003,9.6534,-0.0526757,-0.995356,-1.37622,4.01733,-0.644287
324,-3.81154e+36,0.199196,-0.0445146,9.71186,0.0783796,-1.03001,-3.63086,4.0166,-0.63208
325,-3.81418e+36,0.181262,-0.065482,9.72036,0.170975,-1.13183,7.35815,4.01758,-0.642334
326,-3.81682e+36,0.199977,-0.0750456,9.72137,0.421085,-1.11004,-6.71143,4.01562,-0.635254
327,-3.81946e+36,0.225923,-0.053225,9.66488,0.430063,-1.05604,-3.89331,4.0166,-0.635986
328,-3.8221e+36,0.226931,-0.0287071,9.65731,0.420099,-1.06708,7.43848,4.01611,-0.638428
329,-3.82474e+36,0.172588,-0.0327623,9.66753,0.270973,-1.02899,0.144531,4.01782,-0.631836
330,-3.82738e+36,0.17447,-0.0341607,9.68217,0.245641,-1.02002,-1.71875,4.0188,-0.639404
331,-3.83002e+36,0.178169,-0.0470499,9.69316,0.195872,-1.02778,4.7334,4.01904,-0.632324
332,-3.83267e+36,0.211635,-0.0712013,9.73937,0.284216,-1.01067,-2.66064,4.01685,-0.638916
333,-3.83531e+36,0.213096,-0.0544114,9.72635,0.308664,-1.05736,-4.61353,4.01587,-0.634521
334,-3.83795e+36,0.198236,-0.0446003,9.70508,0.256245,-1.0401,0.906982,4.01636,-0.63501
335,-3.84059e+36,0.197925,-0.0182371,9.70122,0.191415,-1.04313,0.224365,4.01709,-0.640381
336,-3.84323e+36,0.185494,-0.0380453,9.70578,0.229401,-1.14845,-3.36768,4.01587,-0.630859
337,-3.84587e+36,0.200793,-0.0730218,9.7182,0.263596,-1.116,-0.274414,4.01709,-0.643311
338,-3.84851e+36,0.205558,-0.0604533,9.70871,0.251019,-1.01813,2.00806,4.01709,-0.63623
339,-3.85115e+36,0.18871,-0.0374281,9.68193,0.270691,-1.00837,1.45752,4.0166,-0.634521
340,-3.85379e+36,0.184099,-0.0433756,9.69146,0.346983,-1.05228,-1.91211,4.01587,-0.634521
341,-3.85643e+36,0.182603,-0.0499278,9.69165,0.343115,-1.01583,-5.37427,4.01587,-0.63623
342,-3.85907e+36,0.191561,-0.0265017,9.69651,0.367206,-0.953695,7.07202,4.01562,-0.642822
343,-3.86171e+36,0.213743,-0.0455186,9.72673,0.298534,-1.05327,4.65771,4.0166,-0.635254
344,-3.86436e+36,0.216433,-0.0573615,9.68089,0.285163,-1.07812,6.96436,4.01758,-0.643311
345,-3.867e+36,0.20083,-0.0280885,9.69251,0.417973,-1.00701,-2.18726,4.01587,-0.635986
346,-3.86964e+36,0.21463,-0.0402636,9.71945,0.312878,-0.978707,-1.95239,4.0166,-0.635498
347,-3.87228e+36,0.18646,-0.0466511,9.70642,0.251993,-1.08575,3.92285,4.01685,-0.639893
348,-3.87492e+36,0.187644,-0.0464181,9.7009,0.275584,-1.05642,1.37891,4.01685,-0.634277
349,-3.87756e+36,0.184656,-0.039718,9.7029,0.370126,-1.0148,-1.427,4.01611,-0.641357
350,-3.8802e+36,0.180971,-0.0555354,9.69047,0.188418,-1.10163,-3.29175,4.01782,-0.635742
351,-3.88284e+36,0.173862,-0.0578943,9.67627,0.256206,-1.07536,5.63867,4.0188,-0.638428
352,-3.88548e+36,0.18485,-0.0478243,9.6848,0.290261,-1.10002,-0.0654297,4.01758,-0.636963
353,-3.88812e+36,0.189927,-0.04395,9.70471,0.328041,-1.10222,-7.01343,4.01587,-0.632324
354,-3.89076e+36,0.208914,-0.0279826,9.7054,0.114278,-1.12567,4.30273,4.01709,-0.637939
355,-3.8934e+36,0.195725,-0.0348645,9.69525,0.316822,-1.10537,-7.33081,4.01807,-0.634277
356,-3.89605e+36,0.171451,-0.0562463,9.69504,0.364132,-1.15885,1.06323,4.01758,-0.636475
357,-3.89869e+36,0.187899,-0.0546193,9.69233,0.303452,-0.992718,-3.47461,4.01733,-0.63501
358,-3.90133e+36,0.190403,-0.05411,9.71243,0.269411,-1.01126,-4.83887,4.01758,-0.635986
359,-3.90397e+36,0.209731,-0.0480138,9.68199,0.29067,-1.0139,4.73706,4.01587,-0.636963
360,-3.90661e+36,0.20104,-0.0534874,9.68441,0.195642,-1.03562,-7.51221,4.01611,-0.63623
361,-3.90925e+36,0.20517,-0.0422249,9.70063,0.303349,-1.07992,-3.396,4.01758,-0.639404
362,-3.91189e+36,0.195614,-0.0419169,9.70123,0.286188,-1.15132,7.77832,4.01685,-0.63623
363,-3.91453e+36,0.210403,-0.0331351,9.68018,0.198203,-1.12945,6.0957,4.02002,-0.63916
364,-3.91717e+36,0.194499,-0.0221591,9.70122,0.279835,-1.08268,-1.63989,4.01831,-0.638916
365,-3.91981e+36,0.180729,-0.0342511,9.69852,0.22415,-0.977734,6.8064,4.01831,-0.635742
366,-3.92245e+36,0.191306,-0.0630101,9.71659,0.288852,-1.0575,-1.14062,4.01758,-0.640869
367,-3.92509e+36,0.198369,-0.0547935,9.69232,0.287545,-1.08437,-6.75171,4.01636,-0.633545
368,-3.92774e+36,0.183734,-0.0318494,9.66733,0.259447,-1.15744,-1.92676,4.01685,-0.643311
369,-3.93038e+36,0.177261,-0.0245993,9.66952,0.281488,-1.07805,-0.577148,4.01807,-0.635986
370,-3.93302e+36,0.188917,-0.0203029,9.67254,0.359304,-1.04893,7.92261,4.01709,-0.640381
371,-3.93566e+36,0.197409,-0.0317245,9.69974,0.273778,-1.06212,-2.96118,4.01587,-0.640381
372,-3.9383e+36,0.202874,-0.0472232,9.68679,0.284933,-1.10181,5.60083,4.01758,-0.639648
373,-3.94094e+36,0.222546,-0.061102,9.6895,0.299827,-1.03369,4.7478,4.01807,-0.644287
374,-3.94358e+36,0.201971,-0.0453782,9.71445,0.284894,-0.999467,-0.89209,4.01807,-0.633301
375,-3.94622e+36,0.19649,-0.0349439,9.69272,0.389362,-1.04395,-3.65649,4.01611,-0.636475
376,-3.94886e+36,0.183297,-0.0544122,9.69193,0.240159,-1.09292,-4.60327,4.01782,-0.639893
377,-3.9515e+36,0.194827,-0.0602593,9.65836,0.247997,-1.05745,5.91479,4.01782,-0.633789
378,-3.95414e+36,0.203291,-0.0530685,9.69269,0.244578,-1.14183,4.98633,4.01636,-0.637451
379,-3.95678e+36,0.194085,-0.0391678,9.72252,0.258768,-1.12026,7.79297,4.01587,-0.63208
380,-3.95943e+36,0.232067,-0.0193248,9.71462,0.309625,-1.12379,-1.92725,4.01758,-0.639404
381,-3.96207e+36,0.202878,-0.0383343,9.69093,0.23893,-1.1807,7.35889,4.01685,-0.638916
382,-3.96471e+36,0.197895,-0.0554424,9.69331,0.265953,-1.12765,-7.32837,4.01562,-0.636963
383,-3.96735e+36,0.198117,-0.0418203,9.69506,0.337647,-1.03488,-3.42041,4.01611,-0.637939
384,-3.96999e+36,0.188686,-0.0524482,9.70313,0.287033,-0.942617,-4.94336,4.01733,-0.636719
385,-3.97263e+36,0.20834,-0.0499109,9.69281,0.425632,-0.942309,5.31006,4.01929,-0.635498
386,-3.97527e+36,0.187792,-0.0235007,9.68466,0.265402,-1.0717,-3.07007,4.0188,-0.635986
387,-3.97791e+36,0.187348,-0.0469152,9.69049,0.248637,-1.05834,-6.06982,4.01636,-0.637451
388,-3.98055e+36,0.221935,-0.0430248,9.70492,0.133834,-1.02901,-0.0400391,4.01855,-0.635498
389,-3.98319e+36,0.210745,-0.0465371,9.69102,0.163291,-1.09401,5.57275,4.01904,-0.632324
390,-3.98583e+36,0.194571,-0.0506964,9.68845,0.223177,-1.03432,-1.84863,4.01733,-0.641846
391,-3.98847e+36,0.179174,-0.045886,9.67473,0.268719,-1.02427,4.44409,4.01929,-0.635742
392,-3.99112e+36,0.196052,-0.0656039,9.65011,0.277095,-0.955782,-4.94189,4.01611,-0.636963
393,-3.99376e+36,0.194807,-0.0469221,9.70876,0.203556,-0.908575,4.78613,4.01855,-0.63501
394,-3.9964e+36,0.189335,-0.0335855,9.74204,0.260702,-1.02563,-6.91211,4.01855,-0.634033
395,-3.99904e+36,0.210068,-0.0428436,9.71891,0.286546,-1.11702,6.57031,4.01831,-0.637939
396,-4.00168e+36,0.208868,-0.043041,9.67501,0.205759,-1.05724,4.44604,4.01807,-0.635742
397,-4.00432e+36,0.195932,-0.0419423,9.67955,0.242797,-1.0797,6.75659,4.01611,-0.640869
398,-4.00696e+36,0.169803,-0.049635,9.67949,0.35427,-1.08242,-4.13086,4.01758,-0.634277
399,-4.0096e+36,0.1915,-0.0527164,9.68557,0.435224,-1.03036,-4.51123,4.01782,-0.640381
400,-4.01224e+36,0.18426,-0.0429889,9.69885,0.260779,-1.0358,-1.35107,4.01807,-0.637939
401,-4.01488e+36,0.17227,-0.0304077,9.71606,0.447148,-1.10913,4.28931,4.01758,-0.628906
402,-4.01752e+36,0.169055,-0.0569725,9.72027,0.249227,-1.07742,-1.29883,4.01831,-0.634521
403,-4.02016e+36,0.188999,-0.0323908,9.70415,0.399006,-1.06558,2.20459,4.01709,-0.631348
404,-4.02281e+36,0.201544,-0.0229098,9.70516,0.200675,-0.944115,2.41577,4.01611,-0.637451
405,-4.02545e+36,0.206295,-0.0274735,9.68477,0.29473,-1.03384,-7.08228,4.01855,-0.637451
406,-4.02809e+36,0.191039,-0.0347265,9.70792,0.244642,-1.07623,-4.3396,4.01685,-0.637207
407,-4.03073e+36,0.203558,-0.0646022,9.70567,0.131568,-1.02162,4.74976,4.01636,-0.637451
408,-4.03337e+36,0.20412,-0.0569101,9.69827,0.310304,-1.10123,-1.25586,4.01538,-0.635742
409,-4.03601e+36,0.192122,-0.0409698,9.70445,0.17159,-1.00746,-7.51196,4.01587,-0.638916
410,-4.03865e+36,0.191254,-0.0311518,9.69896,0.241491,-1.08045,1.24585,4.01807,-0.63916
411,-4.04129e+36,0.187831,-0.040938,9.71036,0.178429,-1.05312,-6.15112,4.01807,-0.63501
412,-4.04393e+36,0.218344,-0.0373496,9.68641,0.331346,-1.10743,-0.536621,4.01709,-0.636475
413,-4.04657e+36,0.197345,-0.0493746,9.69164,0.321254,-1.08893,1.30078,4.01636,-0.634766
414,-4.04921e+36,0.198666,-0.0431727,9.70256,0.293539,-0.877044,5.49731,4.01636,-0.638428
415,-4.05185e+36,0.194628,-0.0349248,9.68263,0.188354,-1.07052,-5.98071,4.01807,-0.632568
416,-4.0545e+36,0.189249,-0.0595199,9.67962,0.309369,-0.972073,-4.05103,4.01709,-0.641357
417,-4.05714e+36,0.188976,-0.046045,9.67222,0.20663,-1.07417,6.17773,4.01758,-0.635986
418,-4.05978e+36,0.227655,-0.0525091,9.69002,0.260791,-1.02662,-3.48804,4.01758,-0.635498
419,-4.06242e+36,0.201271,-0.0448773,9.70091,0.191697,-1.09573,0.691406,4.021,-0.640869
420,-4.06506e+36,0.183881,-0.0260561,9.69827,0.374967,-1.12491,-4.57642,4.01758,-0.634277
421,-4.0677e+36,0.206255,-0.0235655,9.72436,0.143978,-1.06728,-5.04688,4.01636,-0.638428
422,-4.07034e+36,0.205445,-0.0295481,9.67867,0.320921,-1.05911,-4.99585,4.01709,-0.634033
423,-4.07298e+36,0.202432,-0.0537278,9.71224,0.225277,-1.04334,-3.50049,4.01709,-0.631104
424,-4.07562e+36,0.214634,-0.0433726,9.67467,0.27292,-0.990362,2.08618,4.01709,-0.638428
425,-4.07826e+36,0.201228,-0.0338906,9.70673,0.218976,-1.05762,-3.02832,4.01709,-0.632812
426,-4.0809e+36,0.196864,-0.0326147,9.69975,0.318436,-1.09546,7.51611,4.01685,-0.637451
427,-4.08354e+36,0.192021,-0.05291,9.72239,0.269026,-1.00834,1.71948,4.01685,-0.634766
428,-4.08619e+36,0.198458,-0.0456744,9.66322,0.302222,-1.16228,3.10742,4.01855,-0.639893
429,-4.08883e+36,0.204739,-0.0417861,9.69404,0.249201,-1.16984,7.28101,4.01636,-0.635498
430,-4.09147e+36,0.195248,-0.0301036,9.69096,0.260907,-1.10414,7.46265,4.01807,-0.635986
431,-4.09411e+36,0.230802,-0.0442139,9.68327,0.215416,-0.978195,0.250488,4.01733,-0.638428
432,-4.09675e+36,0.196438,-0.0309533,9.69654,0.299405,-1.13029,-0.378174,4.01636,-0.635254
433,-4.09939e+36,0.204781,-0.0396733,9.68513,0.333216,-1.06459,-6.35815,4.01611,-0.644775
434,-4.10203e+36,0.196046,-0.0487553,9.67305,0.356665,-1.02052,-7.39453,4.0166,-0.633545
435,-4.10467e+36,0.191703,-0.0625798,9.65704,0.289723,-1.07949,5.73218,4.01733,-0.637939
436,-4.10731e+36,0.198795,-0.0345521,9.68571,0.41554,-1.06142,-3.07935,4.01587,-0.638428
437,-4.10995e+36,0.187125,-0.0480533,9.69959,0.23893,-1.0379,7.30542,4.01782,-0.636719
438,-4.11259e+36,0.195817,-0.0463681,9.66233,0.268514,-1.08675,-4.41626,4.01538,-0.642334
439,-4.11523e+36,0.206328,-0.038566,9.66344,0.25335,-1.02663,7.59448,4.01709,-0.635742
440,-4.11788e+36,0.197332,-0.0301201,9.67873,0.37489,-1.02937,0.854736,4.01636,-0.641357
441,-4.12052e+36,0.196738,-0.036442,9.69544,0.207053,-1.1247,-0.810547,4.01611,-0.637939
442,-4.12316e+36,0.204869,-0.0529204,9.67676,0.266183,-1.05381,7.36084,4.01514,-0.635254
443,-4.1258e+36,0.197995,-0.0395851,9.68085,0.38032,-1.15614,2.24341,4.01782,-0.641357
444,-4.12844e+36,0.182418,-0.0371109,9.69668,0.344127,-1.16994,-4.94165,4.01611,-0.636719
445,-4.13108e+36,0.200821,-0.0440072,9.69005,0.388158,-1.14469,1.79858,4.01636,-0.636963
446,-4.13372e+36,0.180415,-0.0369179,9.70617,0.245948,-1.01049,-4.15771,4.01807,-0.635498
447,-4.13636e+36,0.200296,-0.046737,9.67743,0.260215,-1.01731,-0.379395,4.01733,-0.637451
448,-4.139e+36,0.209146,-0.047897,9.68056,0.282832,-1.07074,-0.615967,4.01733,-0.634521
449,-4.14164e+36,0.223985,-0.0455354,9.65019,0.255246,-1.09405,2.42651,4.01807,-0.633301
450,-4.14428e+36,0.18687,-0.0642833,9.69165,0.282986,-1.01813,6.65039,4.01733,-0.638428
451,-4.14692e+36,0.202009,-0.0348981,9.69401,0.345241,-1.0446,-6.32007,4.01685,-0.632812
452,-4.14957e+36,0.205526,-0.0542188,9.67386,0.228044,-1.08721,5.05151,4.0166,-0.641357
453,-4.15221e+36,0.19311,-0.0536702,9.71521,0.363466,-1.1984,-7.93237,4.0166,-0.635498
454,-4.15485e+36,0.196414,-0.0449381,9.68743,0.413286,-1.17963,-6.20312,4.01807,-0.641846
455,-4.15749e+36,0.184523,-0.0413939,9.69935,0.297945,-1.10209,3.08276,4.01758,-0.641357
456,-4.16013e+36,0.193945,-0.0378695,9.66935,0.306397,-0.959906,-3.57886,4.01685,-0.632812
457,-4.16277e+36,0.212361,-0.0214602,9.70279,0.343974,-1.08157,1.9834,4.01587,-0.642334
458,-4.16541e+36,0.20548,-0.0436487,9.70545,0.253709,-0.984752,-6.51538,4.01587,-0.634277
459,-4.16805e+36,0.212553,-0.0444753,9.7087,0.260343,-1.07302,5.8916,4.01562,-0.634521
460,-4.17069e+36,0.195175,-0.0381202,9.71731,0.312904,-0.961904,-4.18262,4.01758,-0.639893
461,-4.17333e+36,0.191372,-0.0524536,9.68843,0.265415,-1.02727,-3.29248,4.01855,-0.63623
462,-4.17597e+36,0.201997,-0.052287,9.6859,0.283089,-0.977452,7.12305,4.01685,-0.640381
463,-4.17861e+36,0.203282,-0.0461229,9.69317,0.314248,-1.05823,-5.76904,4.01685,-0.633789
464,-4.18126e+36,0.222004,-0.0362769,9.69544,0.311469,-1.12213,-4.05103,4.01709,-0.635986
465,-4.1839e+36,0.198815,-0.0322633,9.70637,0.289851,-1.0766,-6.01978,4.01782,-0.636475
466,-4.18654e+36,0.225711,-0.0442346,9.73032,0.265876,-1.16638,4.28882,4.01807,-0.637451
467,-4.18918e+36,0.215755,-0.0348875,9.69798,0.198843,-1.11394,6.0481,4.0166,-0.640381
468,-4.19182e+36,0.190037,-0.0272227,9.68886,0.233781,-1.06247,-2.11133,4.01782,-0.634277
469,-4.19446e+36,0.186615,-0.0537134,9.70051,0.208858,-1.09692,5.6543,4.0166,-0.636963
470,-4.1971e+36,0.184641,-0.0339852,9.69685,0.361468,-1.1681,-4.3645,4.01587,-0.635254
471,-4.19974e+36,0.204563,-0.0560595,9.70673,0.271024,-1.05737,-6.09644,4.0166,-0.633545
472,-4.20238e+36,0.197096,-0.0545134,9.68347,0.220539,-1.07445,-0.35376,4.01758,-0.637451
473,-4.20502e+36,0.196507,-0.048005,9.68721,0.362646,-1.12829,-0.221191,4.0166,-0.637207
474,-4.20766e+36,0.209589,-0.0287968,9.71181,0.33967,-1.01103,6.94092,4.01562,-0.635986
475,-4.2103e+36,0.206108,-0.034764,9.71589,0.332934,-1.04205,-1.24536,4.01758,-0.63623
476,-4.21295e+36,0.188308,-0.0265888,9.71171,0.283601,-1.02197,4.68262,4.01758,-0.638428
477,-4.21559e+36,0.198417,-0.0592377,9.67283,0.302786,-1.04507,-7.35742,4.01831,-0.633057
478,-4.21823e+36,0.174839,-0.0619673,9.70044,0.382421,-0.971894,1.43042,4.01733,-0.632568
479,-4.22087e+36,0.201608,-0.0215196,9.72008,0.376529,-1.07399,-5.83423,4.0166,-0.640381
480,-4.22351e+36,0.172953,-0.0308885,9.67103,0.264185,-1.11795,3.13647,4.0166,-0.633301
481,-4.22615e+36,0.183484,-0.040033,9.66858,0.425094,-1.11559,3.03101,4.01685,-0.638428
482,-4.22879e+36,0.222425,-0.0543023,9.70996,0.174305,-1.04069,7.59619,4.01611,-0.63623
483,-4.23143e+36,0.200104,-0.023495,9.67651,0.247024,-1.15772,0.986084,4.01611,-0.633545
484,-4.23407e+36,0.197871,-0.0387362,9.69714,0.19226,-1.11341,7.90991,4.0166,-0.634521
485,-4.23671e+36,0.196765,-0.0458234,9.68271,0.235164,-1.14856,-3.68188,4.01538,-0.638672
486,-4.23935e+36,0.177988,-0.0488752,9.67325,0.19682,-0.993538,-5.15186,4.01636,-0.637451
487,-4.24199e+36,0.208476,-0.0549573,9.67841,0.296203,-1.13429,4.57739,4.01758,-0.634766
488,-4.24464e+36,0.186235,-0.052961,9.68202,0.280092,-1.09835,0.565674,4.01685,-0.639893
489,-4.24728e+36,0.211341,-0.0501968,9.68932,0.364337,-1.01108,0.222656,4.01831,-0.63501
490,-4.24992e+36,0.191559,-0.0425565,9.71107,0.276864,-0.975557,3.08301,4.01733,-0.634033
491,-4.25256e+36,0.190991,-0.04877,9.72963,0.293257,-1.02079,5.36597,4.0166,-0.63501
492,-4.2552e+36,0.20474,-0.0485983,9.69375,0.201994,-1.09646,-0.565674,4.01904,-0.633789
493,-4.25784e+36,0.207149,-0.0203232,9.69517,0.277095,-1.09249,0.51123,4.01807,-0.640381
494,-4.26048e+36,0.179523,-0.047334,9.69038,0.296485,-1.14333,0.880127,4.01685,-0.635254
495,-4.26312e+36,0.206732,-0.0602284,9.69584,0.247357,-1.13383,6.49219,4.01782,-0.638916
496,-4.26576e+36,0.194748,-0.0496431,9.6839,0.301377,-1.12148,-2.97412,4.01562,-0.634033
497,-4.2684e+36,0.177071,-0.0564217,9.67627,0.319384,-1.05888,-7.45972,4.01611,-0.633789
498,-4.27104e+36,0.191077,-0.0582396,9.69916,0.358932,-1.14474,5.04907,4.01807,-0.637451
499,-4.27368e+36,0.191366,-0.055616,9.70105,0.336904,-1.00196,-2.21606,4.01782,-0.631348
500,-4.27633e+36,0.1977,-0.0404462,9.66925,0.190134,-1.16323,3.16309,4.01611,-0.640869
501,-4.27897e+36,0.179535,-0.0484057,9.68372,0.290184,-1.02515,-1.76978,4.01733,-0.634277
502,-4.28161e+36,0.195776,-0.0430464,9.7137,0.340464,-1.09197,0.43335,4.01758,-0.639404
503,-4.28425e+36,0.208824,-0.0539312,9.67614,0.335803,-1.14525,4.21265,4.01611,-0.641357
504,-4.28689e+36,0.213084,-0.0591058,9.70352,0.192978,-1.03327,7.96338,4.01587,-0.632568
505,-4.28953e+36,0.204329,-0.039403,9.70774,0.34131,-1.14059,0.119629,4.01685,-0.643311
506,-4.29217e+36,0.204812,-0.051944,9.70796,0.286598,-1.12453,4.68408,4.0166,-0.63623
507,-4.29481e+36,0.180764,-0.0719998,9.70836,0.310701,-0.989747,6.80762,4.01733,-0.638672
508,-4.29745e+36,0.17908,-0.043595,9.68071,0.233935,-1.03552,-4.7334,4.01709,-0.635498
509,-4.30009e+36,0.195182,-0.0391092,9.6868,0.198664,-1.03734,7.22607,4.01831,-0.629883
510,-4.30273e+36,0.188732,-0.0475699,9.70956,0.349967,-0.962263,6.35986,4.01855,-0.638916
511,-4.30537e+36,0.190442,-0.0472338,9.71317,0.188303,-1.00902,7.13599,4.01685,-0.631348
512,-4.30802e+36,0.188974,-0.0431844,9.68945,0.405537,-1.03218,-7.84204,4.01758,-0.641357
513,-4.31066e+36,0.196686,-0.0431774,9.72199,0.407292,-1.13516,-5.1792,4.01709,-0.636963
514,-4.3133e+36,0.208681,-0.040964,9.68068,0.128583,-1.10381,7.77734,4.01782,-0.636475
515,-4.31594e+36,0.205795,-0.0335619,9.69929,0.216159,-1.01311,0.117676,4.01831,-0.641846
516,-4.31858e+36,0.205519,-0.0370149,9.68843,0.247024,-1.06331,1.01025,4.01782,-0.633301
517,-4.32122e+36,0.196583,-0.0300878,9.70387,0.200483,-1.04764,-2.08545,4.01807,-0.638916
518,-4.32386e+36,0.196995,-0.0468111,9.6931,0.32151,-1.10645,-7.80054,4.01587,-0.634277
519,-4.3265e+36,0.197023,-0.052428,9.66938,0.401606,-1.07048,-6.83154,4.01709,-0.636963
520,-4.32914e+36,0.204524,-0.0263852,9.69061,0.345395,-1.09739,-5.16528,4.01636,-0.639404
521,-4.33178e+36,0.183838,-0.0470806,9.6908,0.337032,-0.953234,7.67236,4.01807,-0.633301
522,-4.33442e+36,0.188975,-0.0475683,9.69232,0.26731,-1.02922,-5.25635,4.01562,-0.638428
523,-4.33706e+36,0.204667,-0.0541343,9.70222,0.325352,-1.15058,1.90234,4.01758,-0.631348
524,-4.33971e+36,0.208081,-0.0408523,9.70924,0.227685,-1.09804,-3.15967,4.01685,-0.639404
525,-4.34235e+36,0.198722,-0.0328549,9.69165,0.285676,-1.02776,2.90063,4.01636,-0.639404
526,-4.34499e+36,0.192987,-0.0534967,9.68879,0.298406,-1.1826,-6.64771,4.01685,-0.63501
527,-4.34763e+36,0.201015,-0.0391623,9.70275,0.350608,-1.09943,-0.248047,4.01709,-0.639893
528,-4.35027e+36,0.189697,-0.0457948,9.68182,0.251506,-1.07946,-2.24121,4.01685,-0.635254
529,-4.35291e+36,0.196528,-0.0404128,9.70885,0.13719,-1.09786,7.5144,4.01831,-0.639893
530,-4.35555e+36,0.191271,-0.0514544,9.65807,0.273791,-1.14738,-2.55469,4.01587,-0.636719
531,-4.35819e+36,0.18687,-0.034122,9.67305,0.298969,-1.09533,7.12305,4.01685,-0.635986
532,-4.36083e+36,0.198761,-0.0474809,9.67965,0.237188,-1.04971,3.50269,4.01709,-0.639404
533,-4.36347e+36,0.189347,-0.040459,9.68782,0.341156,-1.14622,-3.73682,4.01758,-0.632568
534,-4.36611e+36,0.178538,-0.036969,9.68881,0.358574,-1.11241,4.34229,4.01709,-0.639893
535,-4.36875e+36,0.182013,-0.0586671,9.66497,0.226648,-1.00252,2.67407,4.01904,-0.636719
536,-4.3714e+36,0.200523,-0.0371214,9.69265,0.343231,-1.13326,-7.80273,4.01782,-0.634033
537,-4.37404e+36,0.196285,-0.034853,9.70781,0.265825,-1.18139,5.49487,4.01831,-0.633057
538,-4.37668e+36,0.221031,-0.0427395,9.69119,0.217093,-1.11168,3.22729,4.01733,-0.636719
539,-4.37932e+36,0.178865,-0.0405221,9.70589,0.395228,-1.22765,1.29932,4.01758,-0.637451
540,-4.38196e+36,0.200062,-0.053129,9.68413,0.403335,-1.07234,-1.02075,4.01636,-0.632324
541,-4.3846e+36,0.184237,-0.0416957,9.7167,0.317232,-1.02002,7.46338,4.01709,-0.638916
542,-4.38724e+36,0.183871,-0.0543018,9.71147,0.278324,-1.04807,-2.16333,4.01733,-0.636719
543,-4.38988e+36,0.200338,-0.0355184,9.6989,0.253043,-1.04838,3.18799,4.01733,-0.635986
544,-4.39252e+36,0.191842,-0.0510259,9.71829,0.2106,-1.03319,-5.94043,4.01733,-0.640381
545,-4.39516e+36,0.202405,-0.0485407,9.68438,0.232398,-1.05219,2.82007,4.01782,-0.632812
546,-4.3978e+36,0.206297,-0.0602446,9.68243,0.366143,-1.03546,-4.64282,4.01807,-0.635498
547,-4.40044e+36,0.227241,-0.0415369,9.70073,0.234985,-1.06554,-6.91138,4.01807,-0.636475
548,-4.40309e+36,0.211416,-0.042809,9.74816,0.384982,-1.0201,-3.89453,4.01758,-0.638916
549,-4.40573e+36,0.191615,-0.0401107,9.71319,0.282448,-1.08593,-4.91577,4.01636,-0.639893
550,-4.40837e+36,0.194094,-0.0376871,9.67261,0.190493,-1.06344,7.04614,4.01562,-0.638916
551,-4.41101e+36,0.202336,-0.0419558,9.69962,0.357395,-1.05932,-1.7417,4.01587,-0.637939
552,-4.41365e+36,0.196407,-0.0330091,9.67624,0.243719,-1.02894,2.79395,4.01782,-0.632324
553,-4.41629e+36,0.180543,-0.050105,9.70366,0.2283,-0.997943,1.16919,4.01685,-0.638916
554,-4.41893e+36,0.198978,-0.0376265,9.68913,0.318718,-0.94026,4.92041,4.01636,-0.638672
555,-4.42157e+36,0.198291,-0.0447078,9.73165,0.35445,-1.0992,2.42944,4.01562,-0.634521
556,-4.42421e+36,0.214715,-0.0592017,9.68453,0.318257,-1.08749,1.74683,4.01636,-0.636475
557,-4.42685e+36,0.197538,-0.0410221,9.67858,0.313902,-0.998276,-6.90771,4.01538,-0.635254
558,-4.42949e+36,0.190586,-0.0493277,9.69594,0.266644,-1.1117,3.18799,4.01733,-0.636963
559,-4.43213e+36,0.193582,-0.0262212,9.71023,0.257385,-1.02869,6.50732,4.01611,-0.635254
560,-4.43478e+36,0.184409,-0.0492117,9.72427,0.27023,-0.979911,3.42407,4.01733,-0.638428
561,-4.43742e+36,0.186701,-0.046075,9.70391,0.242721,-1.01167,5.65479,4.0166,-0.635498
562,-4.44006e+36,0.184773,-0.0489635,9.69686,0.296715,-1.069,5.33789,4.01782,-0.638916
563,-4.4427e+36,0.206637,-0.0594254,9.70066,0.307345,-1.14917,-5.59766,4.01636,-0.640381
564,-4.44534e+36,0.197637,-0.0572642,9.72729,0.364926,-1.06026,-3.81494,4.01685,-0.633789
565,-4.44798e+36,0.217931,-0.0384453,9.69044,0.299046,-1.10696,-1.37451,4.01611,-0.638428
566,-4.45062e+36,0.195246,-0.067455,9.69843,0.393511,-1.05378,-6.51709,4.01733,-0.633789
567,-4.45326e+36,0.209249,-0.0428857,9.72458,0.286879,-1.13367,3.89795,4.01611,-0.635498
568,-4.4559e+36,0.221068,-0.0425834,9.69053,0.427194,-1.06475,0.748291,4.01758,-0.641846
569,-4.45854e+36,0.208698,-0.00928007,9.71527,0.264749,-0.963543,0.671387,4.01636,-0.634766
570,-4.46118e+36,0.20573,-0.0297792,9.68461,0.267899,-1.14149,-2.58301,4.01782,-0.643311
571,-4.46382e+36,0.221557,-0.0276911,9.73291,0.316361,-1.1732,-2.03174,4.01709,-0.635254
572,-4.46647e+36,0.207581,-0.0436794,9.69219,0.272049,-1.02448,7.96069,4.01807,-0.640869
573,-4.46911e+36,0.20373,-0.0530024,9.70379,0.195462,-1.10591,7.22705,4.01758,-0.634521
574,-4.47175e+36,0.200219,-0.0605027,9.7135,0.331166,-1.05783,-7.17285,4.01709,-0.636475
575,-4.47439e+36,0.19678,-0.0401271,9.70449,0.39597,-1.09853,-4.86304,4.01611,-0.635986
576,-4.47703e+36,0.183271,-0.0329824,9.72966,0.266286,-1.07217,-5.28467,4.01758,-0.63916
577,-4.47967e+36,0.200486,-0.0424981,9.67866,0.244462,-1.01429,2.0354,4.01611,-0.639404
578,-4.48231e+36,0.187248,-0.0312575,9.71663,0.281065,-1.02166,2.63745,4.01709,-0.638428
579,-4.48495e+36,0.213068,-0.0475477,9.69802,0.35071,-1.11751,1.24854,4.01636,-0.63623
580,-4.48759e+36,0.197109,-0.0266607,9.71774,0.289825,-1.11603,-5.02368,4.01855,-0.637939
581,-4.49023e+36,0.226349,-0.0481402,9.68782,0.215595,-1.08935,-5.02124,4.01685,-0.633301
582,-4.49287e+36,0.183437,-0.0486212,9.70477,0.301031,-1.03797,-7.08032,4.0166,-0.639404
583,-4.49551e+36,0.211411,-0.0228994,9.7112,0.332037,-1.06859,-1.27075,4.0166,-0.63208
584,-4.49816e+36,0.207891,-0.0560521,9.69361,0.238622,-1.00266,-1.53369,4.01733,-0.635498
585,-4.5008e+36,0.221885,-0.0290239,9.68843,0.235574,-1.04592,-3.65723,4.0166,-0.635986
586,-4.50344e+36,0.19829,-0.034064,9.72206,0.226737,-1.0734,1.19604,4.01611,-0.632568
587,-4.50608e+36,0.189031,-0.0223991,9.69531,0.268283,-1.05511,-2.18896,4.01685,-0.640869
588,-4.50872e+36,0.184829,-0.0367968,9.71806,0.256603,-1.18828,-2.73901,4.01611,-0.635254
589,-4.51136e+36,0.172901,-0.0606344,9.68462,0.298957,-1.00008,-6.03052,4.01636,-0.636963
590,-4.514e+36,0.191107,-0.0220921,9.71202,0.285343,-1.08014,-2.84546,4.01758,-0.63623
591,-4.51664e+36,0.203427,-0.0636583,9.6857,0.333369,-1.00232,1.50903,4.01758,-0.635986
592,-4.51928e+36,0.20025,-0.0473931,9.67121,0.323277,-1.01183,-0.695312,4.01831,-0.636475
593,-4.52192e+36,0.216029,-0.0419325,9.7084,0.350864,-1.06449,4.10571,4.01733,-0.635742
594,-4.52456e+36,0.183336,-0.0423441,9.69136,0.2846,-1.0431,3.24146,4.01636,-0.640381
595,-4.5272e+36,0.194797,-0.037815,9.72529,0.258051,-1.08207,-2.17554,4.01685,-0.634766
596,-4.52985e+36,0.189685,-0.0536902,9.70217,0.263724,-1.05789,-3.34277,4.01709,-0.641357
597,-4.53249e+36,0.187711,-0.0150597,9.73513,0.31444,-1.13921,7.25342,4.01733,-0.638428
598,-4.53513e+36,0.201695,-0.0537912,9.69759,0.241645,-1.08203,-4.67944,4.01636,-0.63501
599,-4.53777e+36,0.205773,-0.0330686,9.70444,0.242413,-1.11725,4.0813,4.01611,-0.640869
600,-4.54041e+36,0.202848,-0.0494461,9.68662,0.187804,-1.01549,-7.82959,4.01807,-0.633789
601,-4.54305e+36,0.20698,-0.0628774,9.69569,0.341361,-1.03836,-7.27808,4.01782,-0.636963
602,-4.54569e+36,0.189892,-0.0477506,9.69727,0.308421,-1.05132,6.54883,4.01465,-0.637695
603,-4.54833e+36,0.191781,-0.0205923,9.70424,0.44077,-1.02358,4.20972,4.01831,-0.637451
604,-4.55097e+36,0.202136,-0.0400821,9.69623,0.27461,-0.97968,1.35107,4.01782,-0.639404
605,-4.55361e+36,0.208483,-0.0514741,9.72345,0.335726,-1.02397,-5.78101,4.01636,-0.630859
606,-4.55625e+36,0.198002,-0.0281354,9.68935,0.322278,-1.0295,-1.97705,4.01538,-0.637451
607,-4.55889e+36,0.193539,-0.0554933,9.66998,0.254682,-0.99551,7.6731,4.01733,-0.631836
608,-4.56154e+36,0.194699,-0.0412053,9.68637,0.258909,-0.999532,2.58472,4.01733,-0.639893
609,-4.56418e+36,0.186964,-0.0384713,9.68351,0.251865,-0.964286,-7.85376,4.0166,-0.63501
610,-4.56682e+36,0.179475,-0.0615683,9.70117,0.383983,-1.06024,3.29297,4.01709,-0.638184
611,-4.56946e+36,0.205869,-0.0498123,9.68755,0.170642,-1.06742,-6.46655,4.01855,-0.640381
612,-4.5721e+36,0.199186,-0.0469331,9.69383,0.364926,-1.09807,3.76611,4.01636,-0.63501
613,-4.57474e+36,0.205668,-0.0323369,9.70417,0.331448,-1.02389,2.05884,4.01831,-0.637939
614,-4.57738e+36,0.213378,-0.0149669,9.69782,0.255246,-1.01855,4.63232,4.01587,-0.633789
615,-4.58002e+36,0.204229,-0.0366093,9.69355,0.28296,-0.977644,-2.92188,4.01587,-0.638916
616,-4.58266e+36,0.195689,-0.0263963,9.67966,0.302427,-1.06241,1.16821,4.01709,-0.639404
617,-4.5853e+36,0.202521,-0.0302791,9.7086,0.272587,-1.04361,-3.52612,4.0166,-0.632812
618,-4.58794e+36,0.189744,-0.03826,9.6843,0.32361,-1.0679,3.3208,4.01611,-0.638916
619,-4.59058e+36,0.186415,-0.0419063,9.64615,0.256142,-1.0262,-0.0378418,4.01685,-0.633789
620,-4.59323e+36,0.194162,-0.0514976,9.68241,0.31526,-1.10642,-7.82959,4.01831,-0.640381
621,-4.59587e+36,0.190142,-0.0294899,9.65876,0.364388,-1.05086,1.40381,4.01782,-0.637451
622,-4.59851e+36,0.198556,-0.0256183,9.70033,0.269564,-1.07814,-0.640625,4.0166,-0.638184
623,-4.60115e+36,0.196019,-0.0410179,9.7064,0.398327,-1.13946,-7.56787,4.0188,-0.639404
624,-4.60379e+36,0.193446,-0.0454344,9.69764,0.345997,-1.0462,-7.32886,4.01636,-0.633789
625,-4.60643e+36,0.218833,-0.0563926,9.6825,0.327401,-0.998558,0.880371,4.01685,-0.640869
626,-4.60907e+36,0.211487,-0.0626746,9.69078,0.325839,-1.11364,-6.46216,4.01562,-0.637695
627,-4.61171e+36,0.191086,-0.0439774,9.70559,0.260971,-1.10351,-0.994873,4.0166,-0.638916
628,-4.61435e+36,0.204998,-0.047221,9.70621,0.321561,-1.00967,-4.44385,4.01636,-0.640869
629,-4.61699e+36,0.192519,-0.0475234,9.68365,0.369844,-1.01795,7.93579,4.01685,-0.634766
630,-4.61963e+36,0.206946,-0.0458429,9.71542,0.278837,-0.992897,-6.91064,4.01733,-0.637939
631,-4.62227e+36,0.199417,-0.0353692,9.71066,0.399864,-1.04141,-7.87939,4.01587,-0.634766
632,-4.62492e+36,0.19094,-0.0417291,9.70803,0.301428,-1.06472,0.434326,4.01685,-0.634521
633,-4.62756e+36,0.219151,-0.041339,9.66667,0.323457,-1.09651,-0.456299,4.01611,-0.639893
634,-4.6302e+36,0.204204,-0.026417,9.66996,0.383996,-1.09562,-4.3252,4.01587,-0.634521
635,-4.63284e+36,0.198689,-0.0225497,9.70557,0.271075,-1.09584,2.55737,4.01807,-0.638916
636,-4.63548e+36,0.196308,-0.0335884,9.68029,0.288109,-1.10176,-4.8916,4.01782,-0.628906
637,-4.63812e+36,0.18699,-0.0303646,9.71813,0.386544,-1.0494,5.75732,4.01831,-0.637451
638,-4.64076e+36,0.170812,-0.0445447,9.69982,0.364234,-1.05099,3.58179,4.0166,-0.63623
639,-4.6434e+36,0.164769,-0.0421896,9.69501,0.223382,-1.10004,0.592285,4.01685,-0.638428
640,-4.64604e+36,0.185426,-0.0459666,9.68757,0.31736,-1.11895,1.40234,4.01855,-0.635498
641,-4.64868e+36,0.209978,-0.0369412,9.73849,0.258268,-1.03578,-4.49609,4.01636,-0.634766
642,-4.65132e+36,0.199337,-0.0428642,9.73239,0.309458,-1.09181,-5.40332,4.01782,-0.638916
643,-4.65396e+36,0.20244,-0.0288779,9.70626,0.177353,-1.11341,5.49414,4.01855,-0.632812
644,-4.65661e+36,0.216523,-0.0479932,9.69782,0.336622,-1.05007,-3.26465,4.01709,-0.638428
645,-4.65925e+36,0.190664,-0.0547075,9.65649,0.166826,-1.07135,-1.66504,4.01733,-0.636475
646,-4.66189e+36,0.191262,-0.0281505,9.68387,0.327145,-0.958805,-2.94775,4.01562,-0.63208
647,-4.66453e+36,0.180412,-0.0472975,9.67795,0.31964,-1.05642,-1.68726,4.01465,-0.638916
648,-4.66717e+36,0.200081,-0.0365259,9.69434,0.197383,-1.05599,0.328613,4.01758,-0.635742
649,-4.66981e+36,0.213029,-0.0475198,9.68958,0.336789,-1.02114,-6.10962,4.01636,-0.640869
650,-4.67245e+36,0.198195,-0.0350242,9.68187,0.206297,-1.08401,-4.57617,4.01733,-0.637939
651,-4.67509e+36,0.210516,-0.0321575,9.68622,0.230861,-1.01234,-5.46899,4.01807,-0.634521
652,-4.67773e+36,0.18914,-0.0557113,9.68514,0.255067,-1.01601,7.7771,4.01807,-0.636475
653,-4.68037e+36,0.202474,-0.0260614,9.69458,0.259062,-1.02614,-2.24097,4.0166,-0.630859
654,-4.68301e+36,0.200561,-0.0294894,9.67285,0.32735,-1.00952,3.58179,4.01709,-0.637939
655,-4.68565e+36,0.198696,-0.0376048,9.72297,0.111243,-0.97384,0.724854,4.01538,-0.635254
656,-4.6883e+36,0.174188,-0.0474721,9.70735,0.27543,-0.997098,5.33936,4.01685,-0.633057
657,-4.69094e+36,0.199446,-0.040757,9.71397,0.240313,-1.0961,-1.29712,4.01709,-0.635986
658,-4.69358e+36,0.184361,-0.0272502,9.68054,0.317885,-1.12544,-3.48804,4.01782,-0.63501
659,-4.69622e+36,0.201731,-0.0309487,9.69731,0.382933,-1.04607,-4.75977,4.01733,-0.639404
660,-4.69886e+36,0.183878,-0.0562674,9.71802,0.358907,-1.11925,-0.956299,4.01685,-0.635742
661,-4.7015e+36,0.193877,-0.041005,9.68011,0.27169,-1.09838,3.34424,4.01831,-0.640869
662,-4.70414e+36,0.194446,-0.0325321,9.68377,0.325019,-1.02097,4.10571,4.01733,-0.636719
663,-4.70678e+36,0.188329,-0.0484578,9.6976,0.275942,-0.972073,4.39453,4.01733,-0.635498
664,-4.70942e+36,0.211057,-0.0371698,9.70257,0.354399,-1.15068,3.29346,4.0166,-0.636719
665,-4.71206e+36,0.183419,-0.0374106,9.70195,0.312033,-1.00478,-7.30298,4.0166,-0.634277
666,-4.7147e+36,0.202073,-0.0449125,9.6873,0.354424,-1.03757,-6.22827,4.01685,-0.637939
667,-4.71734e+36,0.200254,-0.0426415,9.70601,0.375684,-1.07602,3.1626,4.0166,-0.634033
668,-4.71999e+36,0.191997,-0.0479217,9.68497,0.22853,-0.998302,-3.97266,4.01709,-0.637939
669,-4.72263e+36,0.196126,-0.0282232,9.70838,0.328989,-1.05852,-3.21191,4.01709,-0.637939
670,-4.72527e+36,0.203726,-0.0591966,9.69517,0.238469,-0.988236,-2.71387,4.01709,-0.638184
671,-4.72791e+36,0.202247,-0.0577473,9.70096,0.313416,-1.10721,0.563965,4.01782,-0.636963
672,-4.73055e+36,0.16699,-0.0449828,9.68077,0.227198,-1.0189,-0.773926,4.01807,-0.636719
673,-4.73319e+36,0.180359,-0.0427729,9.6776,0.313365,-1.11979,3.76562,4.01685,-0.637451
674,-4.73583e+36,0.199713,-0.0505525,9.70707,0.24938,-1.0609,5.33789,4.01782,-0.637451
675,-4.73847e+36,0.200876,-0.0667351,9.67965,0.285471,-1.07929,2.19189,4.0166,-0.634033
676,-4.74111e+36,0.177521,-0.0333194,9.72978,0.287622,-0.970792,-7.48511,4.01562,-0.637939
677,-4.74375e+36,0.194071,-0.0528239,9.69521,0.260907,-1.03954,3.10864,4.01782,-0.634766
678,-4.74639e+36,0.177752,-0.0502908,9.70442,0.40596,-0.901122,0.905518,4.01758,-0.638428
679,-4.74903e+36,0.195506,-0.0446453,9.67863,0.342744,-1.10773,7.14893,4.01709,-0.635254
680,-4.75168e+36,0.184907,-0.0420522,9.68541,0.333421,-1.06305,-2.08423,4.01709,-0.639893
681,-4.75432e+36,0.193102,-0.0414809,9.69386,0.347432,-1.07094,3.16064,4.01831,-0.630615
682,-4.75696e+36,0.202551,-0.0597048,9.67845,0.275379,-1.1096,-4.46997,4.01636,-0.634521
683,-4.7596e+36,0.199292,-0.0187382,9.69321,0.359778,-1.07591,-0.276367,4.01855,-0.636963
684,-4.76224e+36,0.186803,-0.0439281,9.71157,0.164879,-1.04484,-7.64526,4.01758,-0.634277
685,-4.76488e+36,0.213605,-0.0487615,9.69227,0.320588,-1.04806,-7.74951,4.01709,-0.641846
686,-4.76752e+36,0.20423,-0.0451635,9.68969,0.218003,-1.09961,-4.73657,4.01953,-0.636719
687,-4.77016e+36,0.184136,-0.0542324,9.71424,0.168029,-1.04036,-7.80054,4.01587,-0.635986
688,-4.7728e+36,0.197985,-0.0528931,9.69995,0.239877,-1.13462,-5.46851,4.01782,-0.641113
689,-4.77544e+36,0.201869,-0.0456913,9.69959,0.204658,-1.1527,-3.81323,4.01562,-0.633301
690,-4.77808e+36,0.202087,-0.0306198,9.67744,0.276429,-1.09202,-5.12305,4.0144,-0.635986
691,-4.78072e+36,0.186625,-0.050356,9.67027,0.127687,-1.11959,-3.18555,4.01685,-0.634766
692,-4.78337e+36,0.198633,-0.0373424,9.72975,0.208551,-0.98611,-4.3916,4.01685,-0.638916
693,-4.78601e+36,0.190844,-0.0316915,9.69934,0.261265,-1.09059,0.459961,4.01733,-0.638916
694,-4.78865e+36,0.204736,-0.0327241,9.67402,0.268693,-1.07722,6.41455,4.01685,-0.63501
695,-4.79129e+36,0.218315,-0.034886,9.704,0.330526,-1.09702,-7.4082,4.01685,-0.640869
696,-4.79393e+36,0.193623,-0.042715,9.71985,0.233346,-1.02082,-0.642578,4.01782,-0.635254
697,-4.79657e+36,0.195687,-0.044594,9.67742,0.311853,-1.10911,6.59814,4.01685,-0.637451
698,-4.79921e+36,0.203649,-0.0292093,9.67282,0.286777,-1.11585,-7.40723,4.01611,-0.633545
699,-4.80185e+36,0.185438,-0.0351986,9.68978,0.292668,-0.961008,-3.10742,4.01733,-0.639893
700,-4.80449e+36,0.215341,-0.0395937,9.66269,0.360969,-1.06266,-5.97803,4.01636,-0.638916
701,-4.80713e+36,0.212331,-0.0590559,9.70023,0.367436,-1.0606,-0.430176,4.01611,-0.635742
702,-4.80977e+36,0.219099,-0.0603555,9.70146,0.357344,-0.996996,5.12744,4.01855,-0.640869
703,-4.81241e+36,0.213026,-0.0320422,9.67063,0.20932,-1.10227,-1.29517,4.01562,-0.631836
704,-4.81506e+36,0.183601,-0.0322618,9.69065,0.295435,-1.1964,7.41089,4.01709,-0.636963
705,-4.8177e+36,0.206885,-0.0428483,9.69201,0.282576,-0.984906,1.61426,4.01709,-0.63501
706,-4.82034e+36,0.18611,-0.0374616,9.68703,0.261022,-1.00669,2.70117,4.01855,-0.637939
707,-4.82298e+36,0.193935,-0.0339352,9.71758,0.25782,-1.03786,-5.48022,4.0166,-0.639893
708,-4.82562e+36,0.187433,-0.0495958,9.69282,0.219873,-1.11077,4.0293,4.01587,-0.637207
709,-4.82826e+36,0.203617,-0.0464448,9.69478,0.229734,-0.967539,-0.537354,4.01758,-0.638428
710,-4.8309e+36,0.21355,-0.053223,9.68835,0.238878,-0.994332,-1.11646,4.01904,-0.63623
711,-4.83354e+36,0.211929,-0.0533597,9.69788,0.368922,-0.943974,-4.47119,4.01733,-0.635986
712,-4.83618e+36,0.211292,-0.0458975,9.71089,0.2966,-1.05036,-7.15967,4.01733,-0.641357
713,-4.83882e+36,0.193636,-0.0250014,9.68516,0.277223,-1.15399,-7.01514,4.01709,-0.634766
714,-4.84146e+36,0.203057,-0.0319785,9.70828,0.286188,-1.09689,1.24634,4.01758,-0.640381
715,-4.8441e+36,0.203627,-0.030279,9.73046,0.246204,-1.03204,-6.93506,4.01587,-0.633301
716,-4.84675e+36,0.202227,-0.0566974,9.7163,0.417755,-1.0977,-7.42139,4.0166,-0.635986
717,-4.84939e+36,0.182914,-0.0500883,9.70199,0.202634,-1.05445,7.43848,4.01636,-0.63501
718,-4.85203e+36,0.197332,-0.0430524,9.69303,0.24021,-1.03134,-1.71729,4.01733,-0.63501
719,-4.85467e+36,0.208399,-0.0512955,9.70122,0.429448,-1.01144,-7.95898,4.01685,-0.639893
720,-4.85731e+36,0.186741,-0.0350568,9.70735,0.330936,-1.09506,-6.04468,4.01685,-0.632324
721,-4.85995e+36,0.188885,-0.0749607,9.67822,0.34259,-1.1909,-4.75806,4.01611,-0.641846
722,-4.86259e+36,0.193082,-0.0405655,9.71991,0.260446,-1.05698,5.18164,4.01685,-0.636475
723,-4.86523e+36,0.159685,-0.0333772,9.69984,0.273253,-1.10552,4.68311,4.01709,-0.63916
724,-4.86787e+36,0.202349,-0.0366741,9.71355,0.201379,-1.03309,4.13159,4.01782,-0.637451
725,-4.87051e+36,0.221806,-0.0446219,9.70786,0.342821,-1.01418,3.1123,4.01514,-0.633301
726,-4.87315e+36,0.193936,-0.0582874,9.73347,0.312904,-1.03488,-6.07178,4.01782,-0.640381
727,-4.87579e+36,0.205675,-0.0440291,9.69524,0.219053,-0.995817,6.91382,4.01636,-0.634277
728,-4.87844e+36,0.188123,-0.0446913,9.70293,0.292643,-1.07976,2.89868,4.01807,-0.634033
729,-4.88108e+36,0.203436,-0.0491551,9.70136,0.254298,-1.06977,7.30688,4.0166,-0.636475
730,-4.88372e+36,0.187899,-0.0593118,9.68683,0.307448,-1.02515,-3.86938,4.01855,-0.638184
731,-4.88636e+36,0.195846,-0.0391771,9.70057,0.281142,-1.0609,-1.58569,4.0166,-0.639404
732,-4.889e+36,0.187083,-0.0368487,9.67222,0.217465,-1.07522,4.23755,4.01685,-0.634277
733,-4.89164e+36,0.195528,-0.066403,9.7049,0.2429,-1.06085,-3.78882,4.01709,-0.63501
734,-4.89428e+36,0.218307,-0.0501142,9.7059,0.268911,-1.13312,7.1875,4.01758,-0.636475
735,-4.89692e+36,0.203453,-0.0658903,9.69689,0.366527,-0.976543,-4.74438,4.01562,-0.634521
736,-4.89956e+36,0.231344,-0.0421832,9.68614,0.291311,-1.13237,-2.21289,4.01538,-0.638916
737,-4.9022e+36,0.196135,-0.0550261,9.71267,0.314056,-1.03908,2.29761,4.01611,-0.634766
738,-4.90484e+36,0.193496,-0.0699752,9.68933,0.316592,-1.07448,4.57959,4.01611,-0.634521
739,-4.90748e+36,0.214224,-0.0316709,9.6903,0.24477,-1.09041,-6.93799,4.01807,-0.631836
740,-4.91013e+36,0.203816,-0.0411507,9.68441,0.306141,-1.02937,-0.45874,4.01782,-0.637451
741,-4.91277e+36,0.188514,-0.0497034,9.70121,0.236394,-1.15268,4.65625,4.01782,-0.635498
742,-4.91541e+36,0.189549,-0.0429198,9.71039,0.293514,-1.11638,-4.62842,4.01709,-0.63501
743,-4.91805e+36,0.192262,-0.0382973,9.68989,0.213341,-1.16052,3.0564,4.01782,-0.640869
744,-4.92069e+36,0.202771,-0.0459082,9.6723,0.265594,-1.11226,7.64771,4.0166,-0.635254
745,-4.92333e+36,0.184444,-0.052246,9.67285,0.295345,-1.06176,4.41016,4.01562,-0.639404
746,-4.92597e+36,0.204374,-0.0512816,9.69644,0.353438,-0.993346,5.69263,4.01733,-0.632812
747,-4.92861e+36,0.211243,-0.0585312,9.69953,0.249534,-0.972585,7.27979,4.01709,-0.634277
748,-4.93125e+36,0.197805,-0.0129954,9.68602,0.316285,-1.08411,-2.7417,4.01855,-0.637451
749,-4.93389e+36,0.184811,-0.0484682,9.7213,0.279093,-1.06188,-2.18994,4.01782,-0.633301
750,-4.93653e+36,0.178541,-0.0472928,9.6853,0.308165,-1.04976,-4.15552,4.0166,-0.639893
751,-4.93917e+36,0.18551,-0.0347301,9.69555,0.325224,-1.08759,4.60254,4.01855,-0.635254
752,-4.94182e+36,0.18531,-0.064327,9.70528,0.301608,-1.04241,7.88403,4.01636,-0.63501
753,-4.94446e+36,0.185998,-0.0375704,9.68478,0.335982,-1.03352,-1.00757,4.01611,-0.638916
754,-4.9471e+36,0.212883,-0.033248,9.67244,0.236368,-1.04771,2.979,4.0166,-0.632568
755,-4.94974e+36,0.190088,-0.0386334,9.69935,0.151508,-1.10365,1.9043,4.01611,-0.641846
756,-4.95238e+36,0.192162,-0.0506407,9.692,0.333369,-1.00993,-2.5813,4.01611,-0.629395
757,-4.95502e+36,0.199314,-0.0380918,9.70405,0.296638,-1.02451,-4.65625,4.01855,-0.640869
758,-4.95766e+36,0.19002,-0.0554953,9.7,0.336264,-1.00629,-2.31763,4.01538,-0.635742
759,-4.9603e+36,0.192951,-0.0507511,9.68313,0.343717,-1.07509,0.590332,4.01807,-0.635254
760,-4.96294e+36,0.213488,-0.0241516,9.68052,0.333549,-1.13831,-5.70239,4.01636,-0.639404
761,-4.96558e+36,0.206067,-0.0479716,9.67815,0.296306,-1.20729,-3.71069,4.01758,-0.639648
762,-4.96822e+36,0.209344,-0.0482615,9.67792,0.303093,-1.00678,-0.327393,4.01758,-0.640381
763,-4.97086e+36,0.216672,-0.0662865,9.70135,0.300148,-1.05537,-0.74585,4.01685,-0.630859
764,-4.97351e+36,0.200256,-0.0399559,9.70321,0.403373,-0.94131,-4.94336,4.01733,-0.637451
765,-4.97615e+36,0.180492,-0.0362772,9.6965,0.253581,-1.07791,5.31177,4.01807,-0.637939
766,-4.97879e+36,0.179262,-0.0206882,9.70957,0.274354,-0.959138,-4.39233,4.01709,-0.631836
767,-4.98143e+36,0.204794,-0.0382046,9.71969,0.283345,-1.07796,-4.99512,4.0166,-0.637939
768,-4.98407e+36,0.205381,-0.0428545,9.694,0.275891,-1.03903,-1.42676,4.01587,-0.633057
769,-4.98671e+36,0.221427,-0.0400698,9.69399,0.243335,-1.0429,-6.62305,4.01807,-0.638916
770,-4.98935e+36,0.197171,-0.031111,9.68225,0.377221,-0.989183,4.6311,4.01709,-0.637207
771,-4.99199e+36,0.201341,-0.0600706,9.69697,0.397226,-1.08688,5.31372,4.01636,-0.638184
772,-4.99463e+36,0.214065,-0.0329621,9.7248,0.247293,-1.07795,1.05249,4.01562,-0.637451
773,-4.99727e+36,0.186295,-0.0473808,9.68979,0.349993,-1.07312,7.07031,4.01685,-0.637695
774,-4.99991e+36,0.194472,-0.0380521,9.68514,0.242567,-1.06505,-7.61914,4.01758,-0.643311
775,-5.00255e+36,0.210736,-0.061673,9.70198,0.326761,-1.11751,1.69141,4.01855,-0.638672
776,-5.0052e+36,0.214949,-0.0544116,9.67019,0.174587,-1.02351,7.40894,4.0188,-0.637939
777,-5.00784e+36,0.20471,-0.0523395,9.69741,0.219565,-1.06613,0.356689,4.01611,-0.637939
778,-5.01048e+36,0.205829,-0.0389839,9.71944,0.325685,-1.15698,-3.23877,4.01733,-0.635254
779,-5.01312e+36,0.191147,-0.0495648,9.7326,0.278247,-1.06124,2.19019,4.01807,-0.640381
780,-5.01576e+36,0.198343,-0.043501,9.69674,0.352759,-1.06784,-3.60425,4.01636,-0.638672
781,-5.0184e+36,0.196931,-0.0599651,9.69172,0.230579,-1.09103,2.8479,4.0166,-0.636963
782,-5.02104e+36,0.197874,-0.0507767,9.70827,0.242772,-1.13091,-0.694336,4.01709,-0.634766
783,-5.02368e+36,0.193602,-0.0428834,9.70151,0.271255,-1.09313,3.45093,4.01685,-0.635986
784,-5.02632e+36,0.195142,-0.0550773,9.72376,0.192926,-1.13311,4.91821,4.01782,-0.637695
785,-5.02896e+36,0.202755,-0.026904,9.70422,0.311264,-1.05173,0.694092,4.0188,-0.636719
786,-5.0316e+36,0.192967,-0.0409398,9.6873,0.248689,-1.06531,-2.97388,4.01562,-0.640381
787,-5.03424e+36,0.190087,-0.055984,9.69905,0.271818,-1.05017,-5.2832,4.0166,-0.634766
788,-5.03689e+36,0.210833,-0.0469979,9.70203,0.333267,-0.999736,7.48853,4.01807,-0.63501
789,-5.03953e+36,0.206973,-0.0380746,9.68044,0.311469,-1.00412,4.29053,4.0166,-0.637451
790,-5.04217e+36,0.191347,-0.0511213,9.679,0.223792,-1.03311,4.70996,4.01685,-0.637451
791,-5.04481e+36,0.213249,-0.0273609,9.70937,0.315824,-1.07735,-6.07129,4.01758,-0.640381
792,-5.04745e+36,0.190624,-0.0493349,9.70894,0.277197,-1.16989,1.3811,4.01514,-0.633057
793,-5.05009e+36,0.203141,-0.0281039,9.70176,0.265953,-1.05921,6.33618,4.01685,-0.637451
794,-5.05273e+36,0.203538,-0.0649913,9.69488,0.236279,-1.1227,-1.9126,4.01636,-0.63623
795,-5.05537e+36,0.199237,-0.0669775,9.71959,0.355935,-0.961597,-7.69751,4.01733,-0.641357
796,-5.05801e+36,0.21515,-0.0592846,9.70288,0.305757,-1.01644,-5.62451,4.01685,-0.636475
797,-5.06065e+36,0.2032,-0.0405735,9.69699,0.289133,-1.15685,4.70947,4.01709,-0.630859
798,-5.06329e+36,0.203128,-0.0570309,9.70287,0.137907,-1.10009,3.50391,4.01636,-0.639404
799,-5.06593e+36,0.202133,-0.0487618,9.69016,0.316054,-0.961341,-5.46582,4.01562,-0.634033
800,-5.06858e+36,0.198645,-0.0637704,9.69828,0.272356,-1.07228,-3.70996,4.01685,-0.636475
801,-5.07122e+36,0.195314,-0.0541269,9.72647,0.345741,-1.04687,-4.75977,4.01733,-0.636475
802,-5.07386e+36,0.19359,-0.0506965,9.69172,0.294,-1.021,2.00586,4.0188,-0.634521
803,-5.0765e+36,0.204522,-0.0699197,9.68516,0.365336,-1.10568,0.459717,4.01758,-0.640381
804,-5.07914e+36,0.209704,-0.0601691,9.70119,0.305885,-1.15698,6.44067,4.01709,-0.635742
805,-5.08178e+36,0.190764,-0.0479475,9.70551,0.241696,-1.11715,0.408203,4.01685,-0.642334
806,-5.08442e+36,0.194807,-0.0506697,9.70334,0.32484,-1.11833,3.68604,4.01758,-0.631836
807,-5.08706e+36,0.196258,-0.0469489,9.69222,0.361904,-1.06623,-2.16162,4.01636,-0.638428
808,-5.0897e+36,0.19551,-0.0542091,9.71469,0.365182,-0.974967,6.20312,4.01807,-0.638916
809,-5.09234e+36,0.182656,-0.050342,9.71647,0.226071,-0.991258,-6.54419,4.01782,-0.636719
810,-5.09498e+36,0.194794,-0.0358552,9.72601,0.312647,-1.11418,-6.33252,4.01636,-0.640381
811,-5.09762e+36,0.195072,-0.046328,9.73362,0.319153,-1.0544,-5.80664,4.01562,-0.632812
812,-5.10027e+36,0.171155,-0.0376161,9.71095,0.380551,-1.00109,5.86426,4.01685,-0.639404
813,-5.10291e+36,0.200032,-0.037859,9.67967,0.225354,-1.05003,-4.44702,4.01904,-0.634033
814,-5.10555e+36,0.193131,-0.0236261,9.69536,0.261803,-1.03603,0.749023,4.01685,-0.630127
815,-5.10819e+36,0.19598,-0.067613,9.68637,0.244104,-1.00253,6.86255,4.01538,-0.636963
816,-5.11083e+36,0.197025,-0.077215,9.68278,0.311572,-1.1285,-1.76904,4.01709,-0.637695
817,-5.11347e+36,0.195086,-0.0361207,9.71788,0.320818,-0.934804,-5.57275,4.01709,-0.638916
818,-5.11611e+36,0.188799,-0.0396377,9.66903,0.351376,-1.07678,-6.59448,4.01636,-0.633057
819,-5.11875e+36,0.196239,-0.048734,9.71449,0.243515,-1.02604,-6.67554,4.01831,-0.638428
820,-5.12139e+36,0.209177,-0.0424011,9.69259,0.280578,-1.00763,-4.62842,4.01709,-0.639893
821,-5.12403e+36,0.214488,-0.035125,9.70122,0.353246,-1.13229,3.24146,4.0166,-0.633301
822,-5.12667e+36,0.196761,-0.0580051,9.71501,0.214212,-1.0233,-3.52539,4.01587,-0.639893
823,-5.12931e+36,0.190912,-0.0550886,9.68082,0.218361,-1.03298,0.932617,4.01709,-0.632324
824,-5.13196e+36,0.191454,-0.0426852,9.71403,0.218848,-1.01626,-4.96899,4.01709,-0.637451
825,-5.1346e+36,0.184701,-0.0266514,9.72602,0.39364,-0.961751,0.354492,4.01782,-0.636475
826,-5.13724e+36,0.203241,-0.0559518,9.7351,0.323226,-1.00586,2.00757,4.01733,-0.637939
827,-5.13988e+36,0.188805,-0.052791,9.71127,0.379962,-1.02655,-6.96289,4.01733,-0.643799
828,-5.14252e+36,0.195525,-0.037881,9.69195,0.345741,-1.02622,6.91382,4.01636,-0.634766
829,-5.14516e+36,0.207568,-0.0498029,9.72018,0.28004,-0.984496,-5.33643,4.01709,-0.643311
830,-5.1478e+36,0.197917,-0.0397639,9.71227,0.305066,-1.05173,-1.14111,4.01807,-0.633545
831,-5.15044e+36,0.202391,-0.0456948,9.69343,0.291311,-0.985187,5.10278,4.01709,-0.635498
832,-5.15308e+36,0.178335,-0.0394095,9.72443,0.316003,-0.941515,-0.588867,4.01685,-0.638916
833,-5.15572e+36,0.209333,-0.0512269,9.68365,0.277697,-1.07418,-0.182617,4.01733,-0.633301
834,-5.15836e+36,0.173494,-0.0328639,9.70689,0.222588,-1.17883,-0.0368652,4.01611,-0.639404
835,-5.161e+36,0.205131,-0.0776723,9.71068,0.301633,-1.06743,2.47974,4.01733,-0.634766
836,-5.16365e+36,0.19548,-0.0520502,9.73035,0.25207,-1.04874,3.84448,4.0166,-0.638428
837,-5.16629e+36,0.206956,-0.0525512,9.71792,0.275404,-1.05824,4.39551,4.0166,-0.639893
838,-5.16893e+36,0.219708,-0.0373316,9.71255,0.259882,-1.09582,3.34448,4.01782,-0.634521
839,-5.17157e+36,0.204812,-0.0680125,9.71315,0.278555,-1.01582,2.50537,4.01782,-0.639893
840,-5.17421e+36,0.197005,-0.0330787,9.70295,0.34738,-1.04848,-4.70654,4.01685,-0.638184
841,-5.17685e+36,0.2126,-0.024941,9.69541,0.315362,-1.1057,7.12256,4.01709,-0.634033
842,-5.17949e+36,0.199786,-0.0355672,9.68079,0.380576,-1.07425,-6.25537,4.01758,-0.634766
843,-5.18213e+36,0.179714,-0.0377308,9.69105,0.353989,-1.00488,0.252686,4.01538,-0.636963
844,-5.18477e+36,0.18703,-0.0623922,9.70711,0.279067,-1.06559,6.49536,4.01538,-0.639893
845,-5.18741e+36,0.171951,-0.0429429,9.68881,0.176226,-1.03677,-2.3728,4.01733,-0.634766
846,-5.19005e+36,0.191477,-0.0297172,9.69545,0.299379,-1.02899,5.3125,4.01733,-0.638916
847,-5.19269e+36,0.192194,-0.0672343,9.71621,0.334509,-1.03722,6.11377,4.01611,-0.633545
848,-5.19534e+36,0.187303,-0.0476305,9.66881,0.244129,-1.04046,3.34546,4.01709,-0.639893
849,-5.19798e+36,0.203946,-0.0487093,9.71293,0.23186,-1.08019,7.33081,4.01831,-0.638428
850,-5.20062e+36,0.205278,-0.0566779,9.73703,0.355295,-1.17066,-7.90918,4.0188,-0.636963
851,-5.20326e+36,0.193382,-0.0458546,9.69254,0.19974,-1.04533,3.5293,4.01709,-0.639893
852,-5.2059e+36,0.19816,-0.0190194,9.69551,0.328759,-1.04943,-2.24072,4.01636,-0.634521
853,-5.20854e+36,0.187861,-0.0441815,9.68622,0.324251,-0.969896,-1.50635,4.01636,-0.639893
854,-5.21118e+36,0.17906,-0.06192,9.68035,0.227506,-1.05711,-3.99902,4.01733,-0.634521
855,-5.21382e+36,0.198109,-0.0537271,9.69819,0.317207,-1.06813,7.9353,4.01733,-0.640625
856,-5.21646e+36,0.209422,-0.0222589,9.72057,0.332037,-1.12245,6.93823,4.01782,-0.638428
857,-5.2191e+36,0.186892,-0.0368141,9.70548,0.331141,-1.11544,1.27417,4.0166,-0.635742
858,-5.22174e+36,0.18034,-0.0527609,9.71039,0.180375,-1.01142,-2.05786,4.01709,-0.636475
859,-5.22438e+36,0.187713,-0.0208689,9.71666,0.268873,-1.01979,6.38892,4.01636,-0.635498
860,-5.22703e+36,0.188137,-0.0419988,9.68555,0.240723,-1.04804,-6.4104,4.01611,-0.637451
861,-5.22967e+36,0.171886,-0.0381235,9.69161,0.244821,-1.03539,-1.61279,4.01758,-0.636963
862,-5.23231e+36,0.20134,-0.0456165,9.71554,0.322534,-1.11987,7.8584,4.01587,-0.636719
863,-5.23495e+36,0.207637,-0.0268434,9.69435,0.289108,-0.986238,-5.80859,4.01709,-0.639893
864,-5.23759e+36,0.198299,-0.0306497,9.71617,0.254068,-1.05189,-2.68701,4.0166,-0.633545
865,-5.24023e+36,0.167802,-0.0582049,9.72819,0.163316,-1.04246,5.94312,4.0166,-0.637939
866,-5.24287e+36,0.196334,-0.0445157,9.70952,0.290235,-1.09518,-2.16504,4.0188,-0.638672
867,-5.24551e+36,0.205381,-0.0575849,9.70302,0.316054,-1.01072,-0.378662,4.0166,-0.634033
868,-5.24815e+36,0.199319,-0.0520524,9.70583,0.270409,-1.00373,-6.83276,4.01782,-0.639893
869,-5.25079e+36,0.191105,-0.0343472,9.72916,0.338031,-0.999685,-7.90845,4.01855,-0.633301
870,-5.25343e+36,0.204762,-0.0569487,9.72765,0.287238,-1.09638,1.9812,4.01758,-0.639404
871,-5.25607e+36,0.200457,-0.0611078,9.71367,0.300263,-0.969012,-1.65088,4.01685,-0.635742
872,-5.25872e+36,0.186575,-0.0471382,9.73597,0.201354,-0.990951,-3.29077,4.01709,-0.638428
873,-5.26136e+36,0.208698,-0.0331304,9.68304,0.262776,-1.0874,7.41113,4.01685,-0.637939
874,-5.264e+36,0.195268,-0.0461963,9.71846,0.272215,-0.979667,3.30542,4.01758,-0.635498
875,-5.26664e+36,0.207655,-0.046797,9.71322,0.256732,-1.04361,-6.96118,4.01611,-0.640381
876,-5.26928e+36,0.181511,-0.0418077,9.70221,0.278375,-1.03931,7.20044,4.01782,-0.634766
877,-5.27192e+36,0.207433,-0.0488311,9.71362,0.362185,-1.0056,-5.57202,4.0166,-0.641846
878,-5.27456e+36,0.193674,-0.0445068,9.67868,0.311277,-0.916657,-6.94873,4.0166,-0.640625
879,-5.2772e+36,0.189004,-0.0503854,9.72762,0.222946,-0.995382,5.07642,4.01733,-0.640137
880,-5.27984e+36,0.213905,-0.0617433,9.70038,0.2231,-1.08642,-2.92285,4.01685,-0.640869
881,-5.28248e+36,0.224636,-0.0403274,9.68777,0.323047,-1.03514,-6.09814,4.01782,-0.633301
882,-5.28512e+36,0.202118,-0.0333237,9.75576,0.343641,-1.03552,7.38501,4.01685,-0.638916
883,-5.28776e+36,0.212036,-0.0332253,9.71572,0.311226,-1.06215,-2.80566,4.01709,-0.632812
884,-5.29041e+36,0.195124,-0.060294,9.66674,0.302402,-1.10616,5.15552,4.01685,-0.637451
885,-5.29305e+36,0.200789,-0.0721047,9.71986,0.188495,-1.14594,3.84326,4.01758,-0.640381
886,-5.29569e+36,0.187599,-0.0383241,9.71238,0.27461,-1.03093,-4.99414,4.01611,-0.634766
887,-5.29833e+36,0.19438,-0.0262136,9.71518,0.243002,-0.885932,-5.78271,4.01709,-0.644287
888,-5.30097e+36,0.21217,-0.0388216,9.68519,0.32986,-1.04694,1.51025,4.0166,-0.63501
889,-5.30361e+36,0.189252,-0.0309807,9.67376,0.250046,-1.16185,1.45801,4.01636,-0.639404
890,-5.30625e+36,0.195966,-0.0460081,9.68609,0.243719,-1.10499,-4.55078,4.01782,-0.635742
891,-5.30889e+36,0.2046,-0.0469096,9.6832,0.305501,-1.04892,-4.62939,4.01782,-0.638916
892,-5.31153e+36,0.195853,-0.0349913,9.73261,0.172256,-1.07911,-7.56665,4.01758,-0.638916
893,-5.31417e+36,0.196023,-0.0249042,9.72159,0.377682,-1.00494,-7.67041,4.0166,-0.633789
894,-5.31681e+36,0.208168,-0.0468786,9.69433,0.281475,-1.10248,6.44092,4.01685,-0.640869
895,-5.322e+36,0.200781,-0.049502,9.68266,0.332806,-1.06772,-3.60327,4.01538,-0.633545
896,-5.32728e+36,0.183109,-0.0453648,9.67792,0.273073,-1.10048,-7.54004,4.01709,-0.634521
897,-5.33256e+36,0.196799,-0.0566496,9.70031,0.298816,-1.08908,6.57153,4.01709,-0.635498
898,-5.33784e+36,0.177794,-0.0477037,9.69943,0.224355,-1.09505,7.77783,4.01758,-0.631592
899,-5.34312e+36,0.205535,-0.0532331,9.7179,0.396816,-1.11469,-4.78516,4.01685,-0.638916
900,-5.3484e+36,0.196441,-0.0337442,9.69705,0.328195,-1.22133,0.670654,4.01709,-0.63623
901,-5.35369e+36,0.211253,-0.0555819,9.68791,0.354014,-1.095,-3.42236,4.01758,-0.639893
902,-5.35897e+36,0.215072,-0.0337839,9.69477,0.266132,-1.09389,0.302246,4.01758,-0.637695
903,-5.36425e+36,0.203111,-0.0506739,9.70978,0.235548,-1.03416,2.03394,4.01733,-0.638672
904,-5.36953e+36,0.205712,-0.0551936,9.70407,0.352093,-1.08188,-7.8269,4.01587,-0.641357
905,-5.37481e+36,0.200895,-0.0288902,9.69363,0.385725,-1.0815,1.84741,4.01929,-0.635254
906,-5.38009e+36,0.17709,-0.028982,9.70097,0.333036,-1.03893,7.67627,4.01489,-0.637939
907,-5.38538e+36,0.179267,-0.0359686,9.68609,0.288724,-1.06943,-7.09131,4.01538,-0.63623
908,-5.39066e+36,0.183414,-0.0322289,9.69489,0.303759,-1.01726,-2.79346,4.01807,-0.637451
909,-5.39594e+36,0.199798,-0.0377356,9.70386,0.190134,-1.10483,-6.20068,4.01636,-0.636475
910,-5.40122e+36,0.232034,-0.0604769,9.6792,0.336725,-1.06838,4.05273,4.01782,-0.634521
911,-5.4065e+36,0.221317,-0.0262754,9.68623,0.331679,-1.10155,-1.66113,4.0144,-0.637939
912,-5.41178e+36,0.19939,-0.0411115,9.69711,0.24331,-1.00227,-1.58643,4.01733,-0.634277
913,-5.41707e+36,0.201752,-0.0424481,9.68031,0.264006,-1.07809,-6.49194,4.01807,-0.640869
914,-5.42235e+36,0.189951,-0.0485587,9.70632,0.242977,-0.982908,6.83447,4.01685,-0.635742
915,-5.42763e+36,0.184513,-0.0461326,9.69431,0.33068,-1.02671,-0.299805,4.0166,-0.636719
916,-5.43291e+36,0.180825,-0.0311864,9.69862,0.390079,-0.924764,-1.84741,4.01685,-0.642822
917,-5.43819e+36,0.193058,-0.0417328,9.69525,0.321535,-1.13567,4.55249,4.01685,-0.634766
918,-5.44347e+36,0.196453,-0.0650885,9.71177,0.239557,-1.03254,-5.24634,4.01831,-0.63501
919,-5.44876e+36,0.192286,-0.0413364,9.6976,0.247062,-1.0656,1.94336,4.01611,-0.632324
920,-5.45404e+36,0.188756,-0.0274165,9.69078,0.212854,-1.06441,3.92114,4.01807,-0.635498
921,-5.45932e+36,0.204084,-0.0559625,9.6797,0.356396,-1.07128,-3.73584,4.0166,-0.636963
922,-5.4646e+36,0.202979,-0.029489,9.69281,0.284344,-1.0974,-2.2417,4.01709,-0.633545
923,-5.46988e+36,0.199488,-0.0695165,9.71417,0.340849,-1.00722,-5.44312,4.01831,-0.641357
924,-5.47516e+36,0.19532,-0.0751637,9.67985,0.333728,-1.07018,-4.10474,4.01782,-0.635254
925,-5.48045e+36,0.205733,-0.0448459,9.67643,0.340874,-0.987185,7.54419,4.01562,-0.640381
926,-5.48573e+36,0.208154,-0.0378797,9.71876,0.273944,-1.18216,1.69263,4.01782,-0.634277
927,-5.49101e+36,0.20496,-0.0263556,9.70641,0.226814,-1.03275,3.66138,4.01636,-0.635986
928,-5.49629e+36,0.197116,-0.0379696,9.73561,0.242259,-0.989491,3.21387,4.01733,-0.637451
929,-5.50157e+36,0.222511,-0.0416254,9.68948,0.27178,-1.01765,6.92529,4.01733,-0.632324
930,-5.50685e+36,0.206367,-0.0535205,9.71805,0.303554,-1.13513,-5.94067,4.01758,-0.641357
931,-5.51214e+36,0.240431,-0.0280715,9.70933,0.271127,-1.10962,6.02222,4.01636,-0.632324
932,-5.51742e+36,0.193521,-0.0249185,9.70166,0.271741,-1.13882,0.383301,4.01611,-0.636963
933,-5.5227e+36,0.180947,-0.0366094,9.69826,0.370689,-1.10742,2.74121,4.01782,-0.638916
934,-5.52798e+36,0.193041,-0.0471801,9.72082,0.365131,-1.15496,-7.82544,4.01514,-0.639648
935,-5.53326e+36,0.195414,-0.0476994,9.71512,0.173921,-1.16992,6.72656,4.0188,-0.640869
936,-5.53854e+36,0.208853,-0.0454444,9.67813,0.223663,-1.07279,6.3103,4.01636,-0.631348
937,-5.54383e+36,0.19646,-0.0367102,9.68196,0.271357,-1.04213,-7.82812,4.01685,-0.638428
938,-5.54911e+36,0.199566,-0.0437163,9.67433,0.295281,-1.03186,-0.351074,4.01562,-0.634033
939,-5.55439e+36,0.204572,-0.0448675,9.70341,0.264877,-0.981935,3.45264,4.01562,-0.638428
940,-5.55967e+36,0.187284,-0.0345904,9.72463,0.293334,-1.08119,4.37109,4.01514,-0.637939
941,-5.56495e+36,0.192637,-0.0309121,9.71287,0.225124,-1.10199,-5.67822,4.01758,-0.637695
942,-5.57023e+36,0.179995,-0.0417776,9.72061,0.324635,-1.0088,-7.77515,4.0166,-0.639404
943,-5.57552e+36,0.189217,-0.0420354,9.67868,0.28191,-1.07076,4.00049,4.01758,-0.630371
944,-5.5808e+36,0.18902,-0.0523755,9.71417,0.280578,-1.11682,-7.51343,4.01685,-0.636963
945,-5.58608e+36,0.190401,-0.0340072,9.71217,0.324558,-1.01377,4.86743,4.01685,-0.633545
946,-5.59136e+36,0.197519,-0.0400796,9.71505,0.204043,-1.16784,1.11475,4.01807,-0.635498
947,-5.59664e+36,0.215042,-0.0352979,9.65702,0.252377,-1.07271,3.02979,4.01782,-0.639404
948,-5.60192e+36,0.190043,-0.0366177,9.71657,0.328656,-1.15829,-0.0634766,4.01636,-0.632324
949,-5.60721e+36,0.202681,-0.0359264,9.73523,0.191799,-1.03201,-1.69043,4.01685,-0.641846
950,-5.61249e+36,0.183678,-0.0602209,9.7144,0.212957,-1.2038,3.11011,4.0166,-0.635986
951,-5.61777e+36,0.188176,-0.0361587,9.67302,0.297048,-1.09287,-7.14526,4.01636,-0.635986
952,-5.62305e+36,0.170192,-0.0322735,9.70928,0.335418,-1.09803,-7.09424,4.01758,-0.637939
953,-5.62833e+36,0.179299,-0.0422781,9.69705,0.396803,-1.08666,-1.67944,4.01855,-0.635742
954,-5.63361e+36,0.19755,-0.0273876,9.72218,0.240441,-1.18442,6.07373,4.01685,-0.639404
955,-5.6389e+36,0.216941,-0.0577144,9.69185,0.318257,-0.932089,-1.95288,4.01685,-0.632568
956,-5.64418e+36,0.181655,-0.0421461,9.69916,0.267489,-1.0899,5.54761,4.01782,-0.636475
957,-5.64946e+36,0.213716,-0.0417404,9.69817,0.258217,-1.09228,2.87329,4.01709,-0.637939
958,-5.65474e+36,0.212007,-0.0382127,9.72085,0.290773,-1.08867,1.85156,4.01636,-0.636719
959,-5.66002e+36,0.197863,-0.0596677,9.71224,0.312417,-1.02778,-5.44214,4.01758,-0.639404
960,-5.6653e+36,0.208422,-0.049997,9.75707,0.234959,-1.09704,4.81421,4.01733,-0.633301
961,-5.67059e+36,0.211773,-0.0439962,9.7104,0.328016,-1.05716,-5.80688,4.01587,-0.639404
962,-5.67587e+36,0.207096,-0.034068,9.66679,0.362211,-1.11638,-1.82251,4.01758,-0.634277
963,-5.68115e+36,0.208865,-0.0492094,9.67609,0.314645,-1.07076,-2.92212,4.01611,-0.633789
964,-5.68643e+36,0.216592,-0.0347439,9.71392,0.235151,-1.08164,-2.64893,4.01758,-0.637939
965,-5.69171e+36,0.202619,-0.0447203,9.69779,0.355346,-1.12824,3.55273,4.01929,-0.634277
966,-5.69699e+36,0.201975,-0.0123762,9.73126,0.26731,-1.10611,2.50757,4.01611,-0.637451
967,-5.70228e+36,0.188616,-0.0412825,9.6837,0.244539,-1.01431,-3.31494,4.01538,-0.632324
968,-5.70756e+36,0.189393,-0.0246103,9.68181,0.315926,-1.13613,7.54395,4.01562,-0.63208
969,-5.71284e+36,0.205854,-0.0379069,9.67401,0.194566,-1.15204,5.75977,4.01636,-0.635498
970,-5.71812e+36,0.20794,-0.0514705,9.70734,0.307396,-1.08257,7.30688,4.0166,-0.637451
971,-5.7234e+36,0.188859,-0.0549883,9.69198,0.251685,-1.01495,-5.73047,4.01758,-0.643311
972,-5.72868e+36,0.204754,-0.0313483,9.71365,0.299302,-1.0825,-4.31274,4.0166,-0.632812
973,-5.73397e+36,0.203237,-0.0450819,9.6975,0.264544,-1.0348,5.47095,4.01636,-0.640381
974,-5.73925e+36,0.180889,-0.0739739,9.67356,0.394536,-1.02571,-2.52856,4.01587,-0.636475
975,-5.74453e+36,0.217101,-0.0293296,9.69565,0.291951,-1.09039,1.29932,4.01733,-0.636475
976,-5.74981e+36,0.191823,-0.0410918,9.69245,0.290901,-1.02899,-4.18286,4.01758,-0.635986
977,-5.75509e+36,0.201316,-0.0356078,9.70223,0.350377,-1.03921,4.05298,4.01758,-0.631348
978,-5.76037e+36,0.19905,-0.0450873,9.70842,0.326274,-1.03887,-1.26831,4.01489,-0.640381
979,-5.76566e+36,0.191538,-0.0458311,9.66717,0.367282,-1.03147,-6.77783,4.01611,-0.633301
980,-5.77094e+36,0.198409,-0.0370164,9.70331,0.331807,-0.978425,-6.85791,4.01709,-0.637451
981,-5.77622e+36,0.186739,-0.0475844,9.69242,0.32671,-1.12338,-7.54004,4.01758,-0.637451
982,-5.7815e+36,0.19349,-0.0446671,9.70453,0.261521,-1.12455,6.07373,4.01709,-0.630127
983,-5.78678e+36,0.197733,-0.05246,9.72081,0.250149,-0.989004,-1.92456,4.01562,-0.637939
984,-5.79206e+36,0.193706,-0.0449178,9.72902,0.228044,-1.09046,2.53442,4.01562,-0.632324
985,-5.79735e+36,0.180615,-0.0417714,9.7053,0.191774,-1.05734,6.52026,4.0166,-0.639893
986,-5.80263e+36,0.191814,-0.0511433,9.69268,0.382113,-0.984957,5.88916,4.01733,-0.634033
987,-5.80791e+36,0.200147,-0.0456397,9.7212,0.26781,-1.01153,-7.81348,4.01587,-0.634766
988,-5.81319e+36,0.215669,-0.0402555,9.71706,0.225392,-0.96768,5.84985,4.01758,-0.637451
989,-5.81847e+36,0.209315,-0.0311037,9.70522,0.315824,-1.04182,7.96436,4.01538,-0.630371
990,-5.82375e+36,0.198966,-0.0286363,9.68849,0.226161,-1.15238,-5.61328,4.01831,-0.636475
991,-5.82904e+36,0.192041,-0.0432238,9.70659,0.209435,-1.08266,0.18457,4.01733,-0.631836
992,-5.83432e+36,0.18401,-0.047997,9.71367,0.264365,-1.10171,0.0153809,4.01636,-0.639404
993,-5.8396e+36,0.205235,-0.0376126,9.70304,0.279067,-0.99615,-2.4231,4.01562,-0.634521
994,-5.84488e+36,0.192543,-0.0326104,9.6774,0.359445,-0.953195,-2.9729,4.01489,-0.630371
995,-5.85016e+36,0.194795,-0.0338018,9.68836,0.348379,-1.02704,-4.44458,4.01709,-0.638428
996,-5.85544e+36,0.209392,-0.0438856,9.71228,0.211497,-1.15276,1.66821,4.01587,-0.632324
997,-5.86073e+36,0.203193,-0.0364807,9.68005,0.278913,-1.03293,-7.46167,4.01733,-0.636963
998,-5.86601e+36,0.189998,-0.0404199,9.69166,0.272254,-1.13083,0.459717,4.01758,-0.635498
999,-5.87129e+36,0.188183,-0.0286921,9.68654,0.298611,-1.14013,-4.49609,4.01636,-0.641602
1000,-5.87657e+36,0.201295,-0.0387518,9.72738,0.260932,-1.02748,-1.76953,4.01709,-0.637451
1001,-5.88185e+36,0.182904,-0.0493415,9.70091,0.383996,-1.09468,0.394287,4.01733,-0.626953
1002,-5.88713e+36,0.203921,-0.0274772,9.70506,0.240697,-1.05583,6.99048,4.01782,-0.642334
1003,-5.89242e+36,0.189412,-0.056857,9.69663,0.308421,-1.06029,-4.70752,4.01733,-0.63623
1004,-5.8977e+36,0.182547,-0.0372134,9.66074,0.119157,-1.12927,0.251221,4.0166,-0.639893
1005,-5.90298e+36,0.193156,-0.0516027,9.68531,0.220052,-1.0598,-1.89771,4.01514,-0.634521
1006,-5.90826e+36,0.195819,-0.0438517,9.70915,0.286751,-1.0087,5.99463,4.01709,-0.63501
1007,-5.91354e+36,0.211579,-0.0205838,9.70113,0.22538,-1.08244,0.644043,4.01709,-0.640869
1008,-5.91882e+36,0.223186,-0.0308631,9.70694,0.261291,-0.988133,1.48364,4.01685,-0.635254
1009,-5.92411e+36,0.181935,-0.0423216,9.71011,0.32256,-0.877813,4.70825,4.01782,-0.640381
1010,-5.92939e+36,0.187679,-0.0543183,9.68533,0.304758,-1.07566,3.2666,4.01709,-0.635986
1011,-5.93467e+36,0.183871,-0.0655204,9.68808,0.210805,-1.04577,2.27051,4.01685,-0.637207
1012,-5.93995e+36,0.186783,-0.0266345,9.71915,0.286803,-1.08198,-7.38379,4.01807,-0.636475
1013,-5.94523e+36,0.21188,-0.0542177,9.66907,0.316285,-1.06293,-6.83179,4.01733,-0.632324
1014,-5.95051e+36,0.204716,-0.0351528,9.67221,0.180427,-1.07876,-3.13184,4.01587,-0.638916
1015,-5.9558e+36,0.189303,-0.0470512,9.72135,0.311981,-1.08475,7.72632,4.01685,-0.632812
1016,-5.96108e+36,0.178373,-0.0508583,9.72151,0.32046,-1.11759,5.65137,4.01904,-0.636475
1017,-5.96636e+36,0.194933,-0.0463992,9.7116,0.271383,-1.07625,-2.13696,4.01733,-0.635986
1018,-5.97164e+36,0.193889,-0.0566722,9.71576,0.358241,-1.16321,-2.9231,4.01685,-0.631104
1019,-5.97692e+36,0.182137,-0.0440842,9.71041,0.280681,-1.05319,-2.60791,4.01611,-0.640381
1020,-5.9822e+36,0.18307,-0.0324288,9.67146,0.353707,-1.11198,-4.60156,4.0166,-0.637695
1021,-5.98749e+36,0.191833,-0.0343717,9.71107,0.225533,-1.02479,-4.44531,4.01758,-0.640381
1022,-5.99277e+36,0.188632,-0.0481403,9.68775,0.2992,-1.06088,-6.36133,4.0188,-0.631104
1023,-5.99805e+36,0.186464,-0.0583323,9.71064,0.289262,-1.10552,-5.78174,4.0166,-0.637695
1024,-6.00333e+36,0.181777,-0.0441669,9.69301,0.308959,-1.08887,-3.65796,4.01733,-0.644287
1025,-6.00861e+36,0.202204,-0.06108,9.67142,0.368153,-1.14768,6.38867,4.01685,-0.635742
1026,-6.01389e+36,0.197083,-0.03684,9.69649,0.278196,-1.06626,-6.85864,4.01758,-0.635498
1027,-6.01918e+36,0.195526,-0.0537138,9.69333,0.317335,-1.02082,-6.2019,4.01685,-0.631592
1028,-6.02446e+36,0.20077,-0.0427702,9.69633,0.235113,-1.07363,-0.511719,4.01831,-0.638428
1029,-6.02974e+36,0.204417,-0.0409643,9.67924,0.273432,-1.0827,3.2373,4.01978,-0.633545
1030,-6.03502e+36,0.197194,-0.039802,9.68621,0.242029,-1.07581,-3.29053,4.01685,-0.635742
1031,-6.0403e+36,0.198047,-0.0361328,9.69741,0.376427,-1.11805,5.7832,4.01807,-0.640869
1032,-6.04558e+36,0.201653,-0.0332909,9.68961,0.361929,-1.08846,0.459717,4.01758,-0.631348
1033,-6.05087e+36,0.209006,-0.0598472,9.7203,0.224534,-1.09177,-6.14795,4.01587,-0.635498
1034,-6.05615e+36,0.208193,-0.0401687,9.67045,0.292233,-1.11533,-3.70972,4.0166,-0.634277
1035,-6.06143e+36,0.197368,-0.0323671,9.68542,0.260548,-1.15975,7.0979,4.01587,-0.637207
1036,-6.06671e+36,0.208714,-0.0474355,9.73024,0.285804,-0.98155,2.77002,4.01587,-0.638428
1037,-6.07199e+36,0.192627,-0.0284266,9.67919,0.358292,-1.0745,-3.86816,4.01733,-0.633789
1038,-6.07727e+36,0.214897,-0.0288482,9.6943,0.383983,-1.08273,-1.74341,4.01709,-0.643311
1039,-6.08256e+36,0.189659,-0.045467,9.69877,0.293872,-1.07576,-1.58472,4.01636,-0.635742
1040,-6.08784e+36,0.193682,-0.0524876,9.72434,0.162036,-1.10855,-3.76343,4.01758,-0.635986
1041,-6.09312e+36,0.208386,-0.0294956,9.70719,0.326991,-1.20913,7.69897,4.01758,-0.638916
1042,-6.0984e+36,0.192471,-0.043829,9.69714,0.276749,-1.12631,-1.83521,4.01733,-0.632324
1043,-6.10368e+36,0.196193,-0.0345315,9.69486,0.292784,-1.09186,3.72485,4.01831,-0.635498
1044,-6.10896e+36,0.207283,-0.0319137,9.68209,0.26603,-1.11426,7.04419,4.01709,-0.633789
1045,-6.11425e+36,0.203289,-0.0381144,9.69414,0.206092,-1.06411,0.250488,4.01733,-0.63501
1046,-6.11953e+36,0.192241,-0.0499926,9.6944,0.311367,-1.01989,-0.902588,4.01611,-0.63501
1047,-6.12481e+36,0.204811,-0.0309022,9.69056,0.396893,-1.07453,-7.20044,4.01855,-0.634766
1048,-6.13009e+36,0.184315,-0.0336278,9.66825,0.37133,-1.06533,-4.31372,4.01709,-0.634521
1049,-6.13537e+36,0.204883,-0.0396346,9.72817,0.326812,-1.10309,6.64819,4.0188,-0.637207
1050,-6.14065e+36,0.210985,-0.0346527,9.69023,0.280604,-1.20132,7.30493,4.01807,-0.637939
1051,-6.14594e+36,0.22218,-0.0336867,9.68302,0.253914,-0.980295,-5.38867,4.0166,-0.637207
1052,-6.15122e+36,0.197293,-0.0395697,9.69485,0.293129,-1.09661,6.7561,4.0166,-0.635498
1053,-6.1565e+36,0.204231,-0.0476035,9.70322,0.0981281,-0.985905,-4.31201,4.01587,-0.637939
1054,-6.16178e+36,0.200556,-0.0498396,9.69292,0.35176,-1.15014,-3.9729,4.01758,-0.633545
1055,-6.16706e+36,0.189089,-0.0401773,9.69876,0.37594,-1.00332,1.11646,4.01685,-0.639404
1056,-6.17234e+36,0.175948,-0.0577285,9.66783,0.373814,-1.06375,6.59961,4.01562,-0.631836
1057,-6.17763e+36,0.213777,-0.0404505,9.69504,0.353169,-0.998866,4.55347,4.01611,-0.640381
1058,-6.18291e+36,0.191007,-0.0454869,9.70468,0.196128,-1.09425,7.9353,4.01733,-0.638428
1059,-6.18819e+36,0.194014,-0.0443866,9.69883,0.383983,-1.00642,-6.62036,4.01611,-0.63916
1060,-6.19347e+36,0.206044,-0.0554955,9.72304,0.297048,-1.19789,-7.80298,4.01782,-0.638428
1061,-6.19875e+36,0.199852,-0.0495289,9.69646,0.214109,-0.939466,-3.78955,4.01733,-0.635254
1062,-6.20403e+36,0.204671,-0.0443439,9.70139,0.319486,-1.03693,-4.62671,4.01587,-0.636963
1063,-6.20932e+36,0.200968,-0.0619375,9.70231,0.288903,-1.05422,-7.48633,4.01636,-0.636719
1064,-6.2146e+36,0.209939,-0.0519482,9.71583,0.149024,-1.14621,-2.52979,4.01685,-0.639404
1065,-6.21988e+36,0.197126,-0.0294642,9.69772,0.300737,-1.00596,-1.01001,4.01782,-0.639404
1066,-6.22516e+36,0.186724,-0.0289059,9.70156,0.28647,-0.942668,-6.96289,4.01709,-0.63916
1067,-6.23044e+36,0.194182,-0.0368015,9.71354,0.294538,-1.14902,-3.31714,4.01758,-0.643311
1068,-6.23572e+36,0.199392,-0.0450701,9.66276,0.304246,-1.09236,1.92871,4.01758,-0.634277
1069,-6.24101e+36,0.190966,-0.0485232,9.67745,0.291618,-1.12143,-2.99927,4.01514,-0.641846
1070,-6.24629e+36,0.189316,-0.0537686,9.68913,0.342975,-1.08114,-5.54761,4.01782,-0.63501
1071,-6.25157e+36,0.192123,-0.0436158,9.69071,0.273944,-1.05435,-2.92407,4.01758,-0.636475
1072,-6.25685e+36,0.189406,-0.0448496,9.69512,0.229145,-1.12845,-1.87305,4.01611,-0.635986
1073,-6.26213e+36,0.202827,-0.0522036,9.70236,0.206476,-1.10337,5.91675,4.01685,-0.632324
1074,-6.26741e+36,0.201212,-0.0396817,9.68241,0.360648,-1.05094,2.71704,4.01636,-0.638428
1075,-6.2727e+36,0.188964,-0.0372594,9.69401,0.31631,-1.0993,0.881104,4.01636,-0.637207
1076,-6.27798e+36,0.192261,-0.0540386,9.72159,0.206784,-1.07427,-5.46948,4.01831,-0.638428
1077,-6.28326e+36,0.185239,-0.0553794,9.70075,0.259216,-1.1442,3.39844,4.0166,-0.638916
1078,-6.28854e+36,0.195857,-0.0447498,9.68426,0.305219,-1.16093,-3.52734,4.01758,-0.633301
1079,-6.29382e+36,0.196275,-0.0337407,9.68069,0.323969,-1.06326,-2.66089,4.01685,-0.638916
1080,-6.2991e+36,0.199883,-0.0515411,9.67662,0.228223,-0.983548,-6.3855,4.01685,-0.636719
1081,-6.30439e+36,0.199654,-0.0381935,9.67498,0.204683,-1.0347,-5.41577,4.01733,-0.636963
1082,-6.30967e+36,0.219387,-0.0506038,9.68669,0.304271,-1.02671,-6.25586,4.01782,-0.63623
1083,-6.31495e+36,0.196551,-0.0520606,9.6853,0.34446,-1.11523,1.93115,4.01538,-0.633301
1084,-6.32023e+36,0.197683,-0.0383893,9.71503,0.24792,-0.987826,4.26465,4.01636,-0.637695
1085,-6.32551e+36,0.181333,-0.0483068,9.7051,0.368128,-1.1308,-3.81519,4.01685,-0.632812
1086,-6.33079e+36,0.177622,-0.0430202,9.68366,0.289492,-1.02348,3.26733,4.0166,-0.642822
1087,-6.33608e+36,0.194906,-0.0438645,9.6939,0.293181,-0.983651,-6.77881,4.0166,-0.633789
1088,-6.34136e+36,0.21368,-0.0439843,9.69829,0.307396,-1.01846,-4.67969,4.01611,-0.638916
1089,-6.34664e+36,0.184896,-0.0656025,9.71472,0.298406,-1.06362,2.69067,4.01636,-0.636963
1090,-6.35192e+36,0.1952,-0.0221129,9.7149,0.306013,-1.0995,-0.536865,4.01733,-0.637207
1091,-6.3572e+36,0.207663,-0.0499727,9.72048,0.203659,-1.06154,3.97559,4.0166,-0.638428
1092,-6.36248e+36,0.207445,-0.0480846,9.70586,0.34113,-0.994921,1.40552,4.01636,-0.632324
1093,-6.36777e+36,0.228896,-0.0516591,9.71164,0.189878,-1.11823,2.37476,4.01733,-0.640869
1094,-6.37305e+36,0.198681,-0.0405953,9.71341,0.272843,-1.01495,-0.743896,4.01514,-0.63916
1095,-6.37833e+36,0.17702,-0.0668775,9.6766,0.304604,-1.12717,-0.0629883,4.01587,-0.640625
1096,-6.38361e+36,0.192928,-0.0471601,9.69817,0.296767,-1.05493,0.120117,4.0166,-0.635986
1097,-6.38889e+36,0.196538,-0.024769,9.70144,0.279144,-1.07164,-5.72998,4.01709,-0.634277
1098,-6.39417e+36,0.185881,-0.0290196,9.69426,0.281347,-1.11172,-4.44287,4.01562,-0.637939
1099,-6.39946e+36,0.195238,-0.0517824,9.71521,0.221038,-0.985841,-7.41992,4.01587,-0.632324
1100,-6.40474e+36,0.202768,-0.0590948,9.71411,0.310265,-0.987749,-6.72729,4.01733,-0.638428
1101,-6.41002e+36,0.205242,-0.0378262,9.67851,0.253325,-0.999352,4.94238,4.01929,-0.635986
1102,-6.4153e+36,0.21196,-0.0321332,9.65523,0.332985,-1.01838,0.355957,4.01685,-0.632568
1103,-6.42058e+36,0.197974,-0.0294346,9.68024,0.252864,-1.11751,5.57642,4.01636,-0.640381
1104,-6.42586e+36,0.186336,-0.0337076,9.66768,0.277581,-1.11326,-7.77563,4.0166,-0.633301
1105,-6.43115e+36,0.200033,-0.0352797,9.69523,0.236061,-0.982421,0.773193,4.0188,-0.637939
1106,-6.43643e+36,0.179856,-0.0210552,9.69713,0.332037,-1.01108,-6.54321,4.01709,-0.636719
1107,-6.44171e+36,0.187736,-0.0460994,9.72949,0.24208,-1.11118,3.37061,4.01782,-0.638428
1108,-6.44699e+36,0.188238,-0.0312468,9.70172,0.300788,-1.04538,7.85645,4.01733,-0.639404
1109,-6.45227e+36,0.201992,-0.0330613,9.70512,0.178711,-1.19046,-2.6604,4.01636,-0.63623
1110,-6.45755e+36,0.208819,-0.0468217,9.71906,0.292579,-0.993346,6.63916,4.01562,-0.640381
1111,-6.46284e+36,0.193716,-0.0175626,9.66613,0.400658,-1.16451,7.28076,4.01636,-0.635254
1112,-6.46812e+36,0.185162,-0.0493414,9.68655,0.334599,-1.10342,4.94678,4.01636,-0.633789
1113,-6.4734e+36,0.192759,-0.0432967,9.71517,0.222844,-1.02591,5.36328,4.01831,-0.635498
1114,-6.47868e+36,0.208682,-0.0518461,9.70514,0.342334,-0.966694,-3.448,4.01709,-0.633301
1115,-6.48396e+36,0.191334,-0.0444649,9.6731,0.285727,-1.05012,6.9646,4.01758,-0.641357
1116,-6.48924e+36,0.190981,-0.0414762,9.69014,0.286342,-1.09605,-2.58301,4.01758,-0.634766
1117,-6.49453e+36,0.194825,-0.0354707,9.69712,0.267387,-1.094,-4.76099,4.01807,-0.638428
1118,-6.49981e+36,0.202596,-0.054962,9.69973,0.435083,-1.02005,4.47363,4.01709,-0.638916
1119,-6.50509e+36,0.203746,-0.045416,9.70531,0.370459,-1.04669,-3.68457,4.01758,-0.636963
1120,-6.51037e+36,0.209739,-0.0497487,9.6617,0.26124,-1.08577,-0.483887,4.01685,-0.640869
1121,-6.51565e+36,0.20427,-0.0488466,9.69267,0.344383,-1.07133,-4.83984,4.01831,-0.634277
1122,-6.52093e+36,0.209425,-0.0273065,9.69382,0.303682,-1.01165,-4.18237,4.01709,-0.643311
1123,-6.52622e+36,0.185892,-0.037274,9.70571,0.255733,-1.07033,-5.52026,4.01733,-0.633301
1124,-6.5315e+36,0.186661,-0.0362959,9.68724,0.268284,-1.08826,7.07202,4.01562,-0.637451
1125,-6.53678e+36,0.185344,-0.0167412,9.71746,0.272151,-1.16369,5.05054,4.01709,-0.639893
1126,-6.54206e+36,0.193245,-0.0293445,9.68653,0.239596,-1.07548,6.49194,4.01807,-0.63623
1127,-6.54734e+36,0.189114,-0.0459055,9.69684,0.310188,-1.02481,-2.39966,4.01758,-0.643799
1128,-6.55262e+36,0.173365,-0.0373389,9.70548,0.24144,-1.00355,5.28735,4.0166,-0.635742
1129,-6.55791e+36,0.200249,-0.0455062,9.71948,0.256808,-1.12302,-5.4165,4.01782,-0.640381
1130,-6.56319e+36,0.206768,-0.0279147,9.66829,0.252761,-1.0796,-4.33911,4.0166,-0.638184
1131,-6.56847e+36,0.205327,-0.0387888,9.68741,0.311879,-1.15842,0.431885,4.0188,-0.639404
1132,-6.57375e+36,0.207886,-0.0335124,9.70023,0.193977,-1.13654,5.7583,4.01733,-0.635498
1133,-6.57903e+36,0.197648,-0.0374794,9.71909,0.209627,-1.07489,-3.65747,4.01685,-0.632812
1134,-6.58431e+36,0.19328,-0.0388776,9.6922,0.232552,-0.939108,-5.94019,4.01733,-0.640381
1135,-6.5896e+36,0.204421,-0.0464698,9.68854,0.315593,-1.01644,-1.95264,4.0166,-0.640137
1136,-6.59488e+36,0.194772,-0.0357159,9.68867,0.335367,-1.1046,5.49634,4.01709,-0.639404
1137,-6.60016e+36,0.200611,-0.0331083,9.69343,0.231501,-1.00921,-3.39404,4.01587,-0.636475
1138,-6.60544e+36,0.198618,-0.0459009,9.69217,0.162113,-1.09569,-7.38281,4.01758,-0.632568
1139,-6.61072e+36,0.207123,-0.0556025,9.71507,0.30901,-1.04748,-4.83765,4.0166,-0.640381
1140,-6.616e+36,0.189121,-0.0478926,9.70184,0.231553,-1.14909,2.92578,4.01709,-0.633789
1141,-6.62129e+36,0.205191,-0.0436936,9.67497,0.290619,-1.02317,-1.2417,4.01489,-0.638428
1142,-6.62657e+36,0.225131,-0.0449863,9.69947,0.238878,-1.08378,-3.39624,4.01758,-0.635986
1143,-6.63185e+36,0.18799,-0.0446271,9.67485,0.176456,-1.07666,-5.65137,4.01709,-0.637695
1144,-6.63713e+36,0.194132,-0.0298359,9.67769,0.275968,-0.976069,5.94458,4.01562,-0.641357
1145,-6.64241e+36,0.195305,-0.0424709,9.69446,0.298688,-0.996637,0.591309,4.01733,-0.635254
1146,-6.64769e+36,0.183234,-0.0324259,9.69504,0.242362,-1.14036,-0.275391,4.01807,-0.636475
1147,-6.65298e+36,0.193748,-0.0358039,9.70827,0.246537,-1.14095,0.43335,4.01758,-0.632324
1148,-6.65826e+36,0.191724,-0.0591453,9.70518,0.23747,-1.0149,0.304199,4.01611,-0.635498
1149,-6.66354e+36,0.186405,-0.043869,9.69148,0.307473,-0.967437,0.721436,4.01807,-0.639404
1150,-6.66882e+36,0.199698,-0.0299322,9.72464,0.243182,-0.99551,-6.12256,4.01636,-0.634766
1151,-6.6741e+36,0.189538,-0.0407749,9.69695,0.280911,-1.0639,-0.116943,4.01709,-0.644287
1152,-6.67938e+36,0.20488,-0.046855,9.71112,0.27639,-0.968141,0.578857,4.01685,-0.637207
1153,-6.68467e+36,0.202378,-0.0456809,9.69877,0.230912,-1.0533,6.04614,4.01782,-0.637939
1154,-6.68995e+36,0.211417,-0.0402367,9.68806,0.270538,-1.17814,2.19116,4.01782,-0.637207
1155,-6.69523e+36,0.195087,-0.0493614,9.7025,0.306372,-0.979706,-5.41309,4.01562,-0.636963
1156,-6.70051e+36,0.199089,-0.0491323,9.71687,0.164546,-0.981781,2.34961,4.01636,-0.641357
1157,-6.70579e+36,0.206183,-0.023297,9.68972,0.270999,-1.01549,-6.28101,4.01733,-0.632324
1158,-6.71107e+36,0.19531,-0.0311225,9.70687,0.221473,-0.99332,-3.17065,4.01538,-0.641846
1159,-6.71636e+36,0.196497,-0.0367955,9.6901,0.265824,-0.947381,4.65771,4.0166,-0.633301
1160,-6.72164e+36,0.187649,-0.0443791,9.6603,0.320127,-0.979091,2.0874,4.0166,-0.635986
1161,-6.72692e+36,0.186111,-0.049918,9.70925,0.243233,-1.04341,-6.98706,4.01562,-0.639893
1162,-6.7322e+36,0.206598,-0.0345861,9.69451,0.247767,-1.03539,-0.589111,4.01709,-0.632812
1163,-6.73748e+36,0.186266,-0.0443502,9.70224,0.296357,-1.04943,-4.70898,4.0188,-0.644775
1164,-6.74276e+36,0.184667,-0.0724007,9.71768,0.246076,-1.08782,4.89282,4.01733,-0.638184
1165,-6.74805e+36,0.188638,-0.037167,9.70045,0.295768,-1.18395,5.28687,4.01685,-0.641357
1166,-6.75333e+36,0.190943,-0.0179682,9.70216,0.341976,-1.12397,-0.773926,4.01831,-0.636719
1167,-6.75861e+36,0.187812,-0.0427785,9.69927,0.266311,-1.03928,4.47314,4.01709,-0.63623
1168,-6.76389e+36,0.20832,-0.0601173,9.69568,0.330962,-1.05545,-6.22803,4.01685,-0.640137
1169,-6.76917e+36,0.189529,-0.0272813,9.692,0.358446,-1.01172,-2.71338,4.01685,-0.631836
1170,-6.77445e+36,0.207183,-0.038425,9.71129,0.262136,-1.05506,-3.73511,4.01611,-0.642334
1171,-6.77974e+36,0.189433,-0.0353854,9.6925,0.36572,-1.03998,5.23486,4.0166,-0.635742
1172,-6.78502e+36,0.200178,-0.0343463,9.67025,0.153711,-1.10122,0.407959,4.01709,-0.636475
1173,-6.7903e+36,0.192494,-0.0227645,9.6887,0.0928516,-0.923176,-3.08008,4.0166,-0.634521
1174,-6.79558e+36,0.193165,-0.0094334,9.68882,0.233218,-1.08831,2.50732,4.01636,-0.634766
1175,-6.80086e+36,0.197889,-0.023942,9.70681,0.261163,-1.05266,6.91479,4.01562,-0.639893
1176,-6.80614e+36,0.193827,-0.046382,9.70406,0.189597,-1.02745,-0.118408,4.01807,-0.632324
1177,-6.81143e+36,0.182435,-0.0509139,9.7083,0.325813,-1.1088,4.15845,4.01733,-0.636475
1178,-6.81671e+36,0.192372,-0.0266422,9.69928,0.243745,-1.1172,-2.10938,4.01611,-0.637695
1179,-6.82199e+36,0.174842,-0.040405,9.72332,0.228914,-1.07284,1.69214,4.01807,-0.63623
1180,-6.82727e+36,0.195596,-0.0467982,9.68612,0.322458,-1.03595,2.32324,4.0166,-0.638916
1181,-6.83255e+36,0.175715,-0.037731,9.67148,0.301044,-1.08747,1.98193,4.01709,-0.63623
1182,-6.83783e+36,0.187262,-0.0252557,9.7199,0.229939,-1.11866,-4.7334,4.01733,-0.639893
1183,-6.84312e+36,0.204306,-0.0490524,9.71875,0.309702,-0.954348,1.0105,4.01758,-0.629639
1184,-6.8484e+36,0.202354,-0.0546304,9.68582,0.307307,-1.06491,-0.131836,4.01831,-0.638916
1185,-6.85368e+36,0.210092,-0.044894,9.68835,0.252736,-1.12855,-5.94019,4.01733,-0.63208
1186,-6.85896e+36,0.209778,-0.0176377,9.7297,0.358394,-1.04044,1.56177,4.01709,-0.63501
1187,-6.86424e+36,0.18794,-0.0401646,9.66882,0.244001,-0.98278,6.8877,4.01636,-0.637451
1188,-6.86952e+36,0.192206,-0.0180106,9.72792,0.293283,-1.13608,-4.05176,4.01758,-0.634277
1189,-6.87481e+36,0.189863,-0.0358284,9.69693,0.294461,-1.09151,-2.52979,4.01685,-0.640869
1190,-6.88009e+36,0.175045,-0.0466367,9.7037,0.153532,-0.981422,-1.08838,4.01758,-0.636475
1191,-6.88537e+36,0.189747,-0.054232,9.68437,0.260241,-1.02817,5.23486,4.0166,-0.637695
1192,-6.89065e+36,0.195286,-0.0344425,9.68917,0.326569,-1.12121,-0.0258789,4.01782,-0.637939
1193,-6.89593e+36,0.215252,-0.0544594,9.68001,0.312366,-1.02489,-0.561035,4.01587,-0.634277
1194,-6.90121e+36,0.213351,-0.03053,9.70116,0.41098,-1.05135,4.26416,4.0166,-0.641846
1195,-6.9065e+36,0.204212,-0.0286541,9.69757,0.155017,-1.04515,1.53467,4.01782,-0.632812
1196,-6.91178e+36,0.200098,-0.042622,9.71349,0.250815,-1.12079,-5.96729,4.01807,-0.636963
1197,-6.91706e+36,0.20007,-0.0303538,9.67836,0.236701,-0.962186,2.98047,4.01562,-0.638428
1198,-6.92234e+36,0.188081,-0.0383299,9.72562,0.241337,-1.08677,3.97412,4.01758,-0.634277
1199,-6.92762e+36,0.163513,-0.0247737,9.70635,0.259805,-1.02417,3.52759,4.01831,-0.636475
1200,-6.9329e+36,0.20025,-0.0364551,9.69024,0.318641,-1.06349,4.05396,4.01685,-0.634766
1201,-6.93819e+36,0.196731,-0.0314419,9.70609,0.25312,-0.983804,7.59399,4.01782,-0.642334
1202,-6.94347e+36,0.209629,-0.0295343,9.70387,0.38739,-1.08006,6.70483,4.01538,-0.634033
1203,-6.94875e+36,0.197134,-0.0350749,9.67294,0.213853,-1.00824,-6.96118,4.01611,-0.637451
1204,-6.95403e+36,0.19506,-0.0223382,9.72769,0.244001,-1.04456,-7.80151,4.01685,-0.637939
1205,-6.95931e+36,0.203253,-0.0402969,9.69649,0.247126,-1.113,-3.05493,4.01733,-0.634277
1206,-6.96459e+36,0.198961,-0.0754901,9.7124,0.261214,-0.988415,-4.15674,4.01758,-0.637451
1207,-6.96988e+36,0.196378,-0.0432101,9.7468,0.234601,-1.0526,-4.86255,4.01562,-0.633545
1208,-6.97516e+36,0.194633,-0.0489637,9.71566,0.141365,-1.07701,-7.85571,4.01831,-0.640381
1209,-6.98044e+36,0.212321,-0.0563805,9.67707,0.241132,-1.07965,-5.65112,4.01709,-0.640381
1210,-6.98572e+36,0.206735,-0.0683095,9.7026,0.316489,-0.972662,-6.20337,4.01807,-0.634033
1211,-6.991e+36,0.188874,-0.0391606,9.70264,0.400376,-1.06241,1.2207,4.01758,-0.641357
1212,-6.99628e+36,0.197896,-0.0520833,9.68247,0.169617,-1.09963,7.40991,4.01782,-0.632812
1213,-7.00157e+36,0.19,-0.0429956,9.6731,0.24167,-1.08426,0.0395508,4.01782,-0.637451
1214,-7.00685e+36,0.189631,-0.0669067,9.69574,0.260317,-1.06784,-7.72266,4.01636,-0.636475
1215,-7.01213e+36,0.194144,-0.055726,9.6765,0.170975,-1.09179,6.77954,4.0188,-0.635742
1216,-7.01741e+36,0.206304,-0.0530664,9.67816,0.304092,-1.11679,-7.61841,4.01709,-0.642334
1217,-7.02269e+36,0.203868,-0.0442624,9.73116,0.295255,-1.15655,1.35156,4.01758,-0.634766
1218,-7.02797e+36,0.188747,-0.0424754,9.67468,0.250277,-1.09218,-3.73584,4.0166,-0.635498
1219,-7.03326e+36,0.193517,-0.036323,9.70576,0.23104,-1.0941,-4.75854,4.01636,-0.631592
1220,-7.03854e+36,0.222608,-0.0363211,9.67984,0.333523,-1.08332,-1.29663,4.0166,-0.637451
1221,-7.04382e+36,0.204229,-0.0350491,9.67622,0.352939,-1.06006,5.31299,4.0166,-0.633545
1222,-7.0491e+36,0.19166,-0.0289051,9.70879,0.276506,-1.13357,-7.27905,4.01807,-0.634033
1223,-7.05438e+36,0.204485,-0.0626111,9.6971,0.349737,-0.97881,-1.48242,4.01855,-0.638916
1224,-7.05966e+36,0.185828,-0.0603983,9.701,0.309061,-0.947637,-4.60376,4.01807,-0.636475
1225,-7.06495e+36,0.202324,-0.0452589,9.68503,0.189904,-1.19658,-0.484131,4.01685,-0.637939
1226,-7.07023e+36,0.204738,-0.0500249,9.68295,0.316285,-1.06213,3.21484,4.0166,-0.638916
1227,-7.07551e+36,0.1949,-0.0451263,9.70008,0.281091,-1.01948,-6.69995,4.0166,-0.638672
1228,-7.08079e+36,0.208389,-0.0509462,9.69207,0.333753,-1.04953,-1.42944,4.01782,-0.638916
1229,-7.08607e+36,0.19823,-0.0287189,9.70746,0.337647,-1.08457,-5.3103,4.01709,-0.635254
1230,-7.09135e+36,0.206097,-0.0389238,9.70615,0.148537,-1.17583,-6.7793,4.01733,-0.644287
1231,-7.09664e+36,0.19084,-0.0142462,9.69832,0.280578,-1.06121,-0.72168,4.01831,-0.635742
1232,-7.10192e+36,0.209802,-0.0378146,9.69662,0.268924,-0.993691,-6.12451,4.01782,-0.640381
1233,-7.1072e+36,0.177075,-0.0287375,9.6847,0.275635,-1.09646,5.86377,4.01709,-0.63501
1234,-7.11248e+36,0.197009,-0.042588,9.67911,0.294436,-1.04226,1.13989,4.01904,-0.633789
1235,-7.11776e+36,0.21308,-0.0327849,9.74345,0.309804,-1.19415,-6.77905,4.01685,-0.637939
1236,-7.12304e+36,0.217703,-0.0277728,9.6887,0.333472,-1.06065,6.20361,4.01782,-0.631836
1237,-7.12833e+36,0.201114,-0.026439,9.69413,0.281577,-1.01995,7.07178,4.01587,-0.641357
1238,-7.13361e+36,0.184091,-0.0382862,9.69583,0.346894,-1.12973,6.15259,4.01685,-0.638428
1239,-7.13889e+36,0.203394,-0.0304879,9.70538,0.220615,-1.1285,-4.26147,4.01733,-0.637695
1240,-7.14417e+36,0.203153,-0.0216879,9.71321,0.293846,-1.02889,7.56885,4.01685,-0.638428
1241,-7.14945e+36,0.169009,-0.0394424,9.70337,0.273458,-1.03639,0.961182,4.01514,-0.635254
1242,-7.15473e+36,0.19334,-0.032422,9.69697,0.282576,-1.11933,4.18408,4.01733,-0.640381
1243,-7.16002e+36,0.210399,-0.0419241,9.69567,0.225508,-1.05412,2.74146,4.01782,-0.631348
1244,-7.1653e+36,0.203969,-0.0424199,9.7028,0.301172,-1.08127,4.10376,4.0188,-0.639893
1245,-7.17058e+36,0.197538,-0.0231416,9.71191,0.166774,-1.08133,3.50293,4.01709,-0.636963
1246,-7.17586e+36,0.219584,-0.050455,9.71515,0.215198,-1.11325,-5.375,4.0166,-0.634277
1247,-7.18114e+36,0.190939,-0.040967,9.68943,0.316694,-1.09646,-6.25244,4.01562,-0.639893
1248,-7.18642e+36,0.193728,-0.0496942,9.69281,0.399838,-0.935522,-6.46509,4.01758,-0.635742
1249,-7.19171e+36,0.20442,-0.0290732,9.67422,0.355398,-1.04115,2.13965,4.0166,-0.638916
1250,-7.19699e+36,0.180425,-0.0396739,9.7035,0.273842,-1.12888,7.80493,4.0166,-0.639648
1251,-7.20227e+36,0.195557,-0.023989,9.72138,0.298457,-1.0596,-1.40063,4.01611,-0.636719
1252,-7.20755e+36,0.177417,-0.0445789,9.68035,0.241978,-1.13416,0.591064,4.01733,-0.643799
1253,-7.21283e+36,0.198301,-0.048278,9.71192,0.216389,-1.00819,5.96948,4.01636,-0.632324
1254,-7.21811e+36,0.206413,-0.0319308,9.6826,0.243924,-1.05143,-4.57788,4.0188,-0.640869
1255,-7.2234e+36,0.183448,-0.0365541,9.67625,0.382638,-1.11424,-1.88818,4.01782,-0.633545
1256,-7.22868e+36,0.206884,-0.0342956,9.67932,0.234421,-1.09033,-6.51489,4.01562,-0.638428
1257,-7.23396e+36,0.203695,-0.0599557,9.72865,0.246742,-1.00555,-2.29419,4.01709,-0.638184
1258,-7.23924e+36,0.216895,-0.0433811,9.69085,0.326684,-1.08073,-7.06885,4.01807,-0.634277
1259,-7.24452e+36,0.208915,-0.0471865,9.67962,0.258371,-0.974865,-4.62988,4.01807,-0.642822
1260,-7.2498e+36,0.215606,-0.0560831,9.70275,0.361212,-0.939594,4.31567,4.01733,-0.635254
1261,-7.25509e+36,0.198518,-0.0340976,9.69534,0.34464,-1.0262,5.18188,4.01709,-0.639893
1262,-7.26037e+36,0.18314,-0.0555396,9.66124,0.3159,-1.12146,1.82324,4.01782,-0.637695
1263,-7.26565e+36,0.177343,-0.047085,9.70756,0.242439,-1.10857,-4.2605,4.0166,-0.638672
1264,-7.27093e+36,0.209136,-0.0477589,9.69582,0.294589,-1.02287,6.15259,4.0166,-0.637939
1265,-7.27621e+36,0.203847,-0.0334223,9.7047,0.242541,-1.06193,-1.69067,4.01685,-0.634277
1266,-7.28149e+36,0.176765,-0.0580834,9.71031,0.133296,-1.04377,6.99072,4.01782,-0.637451
1267,-7.28678e+36,0.202255,-0.0401322,9.69431,0.29441,-1.08552,-1.97803,4.01611,-0.635254
1268,-7.29206e+36,0.210747,-0.0321868,9.7041,0.286675,-1.02241,0.0400391,4.01782,-0.634033
1269,-7.29734e+36,0.208793,-0.0562535,9.70088,0.308728,-1.03949,6.20532,4.0166,-0.634033
1270,-7.30262e+36,0.216356,-0.0335648,9.70162,0.206169,-1.10401,-3.9978,4.01636,-0.632812
1271,-7.3079e+36,0.193054,-0.0714433,9.72509,0.199919,-1.07089,-3.15991,4.01758,-0.640869
1272,-7.31318e+36,0.19158,-0.0542044,9.6884,0.238571,-1.1107,-0.248047,4.01709,-0.633301
1273,-7.31847e+36,0.192126,-0.0507458,9.67363,0.307243,-1.039,7.20142,4.01685,-0.638916
1274,-7.32375e+36,0.199564,-0.0437488,9.67055,0.249841,-0.9586,2.24414,4.01685,-0.633545
1275,-7.32903e+36,0.184033,-0.0298366,9.72824,0.333318,-1.09582,-6.41235,4.01733,-0.634033
1276,-7.33431e+36,0.191489,-0.0291118,9.69149,0.301787,-0.961392,-1.06152,4.01709,-0.638916
1277,-7.33959e+36,0.185004,-0.0437824,9.72289,0.361622,-1.14172,-3.63086,4.0166,-0.637207
1278,-7.34487e+36,0.212289,-0.0368123,9.69709,0.399147,-1.01349,6.86035,4.01685,-0.636963
1279,-7.35016e+36,0.199817,-0.0413143,9.65687,0.292566,-1.05463,0.615967,4.01855,-0.634766
1280,-7.35544e+36,0.185078,-0.0361808,9.73494,0.211548,-1.02397,3.92212,4.01733,-0.637939
1281,-7.36072e+36,0.181547,-0.0392254,9.70041,0.312929,-1.01982,7.51587,4.01733,-0.633545
1282,-7.366e+36,0.181436,-0.0604734,9.67628,0.344537,-1.06523,-1.31958,4.0144,-0.63623
1283,-7.37128e+36,0.197116,-0.0514747,9.69582,0.394741,-0.986161,-2.68604,4.01611,-0.641846
1284,-7.37656e+36,0.188991,-0.0367902,9.69034,0.409981,-1.03501,4.36938,4.0166,-0.633301
1285,-7.38185e+36,0.198989,-0.0334996,9.72222,0.339645,-1.02369,-3.42261,4.01782,-0.637939
1286,-7.38713e+36,0.200389,-0.0283899,9.70726,0.405781,-0.963953,-1.42993,4.01807,-0.639893
1287,-7.39241e+36,0.199875,-0.0329676,9.69265,0.309189,-1.06398,3.13452,4.01831,-0.636963
1288,-7.39769e+36,0.188169,-0.040286,9.68594,0.221819,-1.0921,-1.71606,4.0166,-0.638428
1289,-7.40297e+36,0.200961,-0.0593878,9.6947,0.233576,-1.17834,-3.94556,4.0166,-0.634766
1290,-7.40825e+36,0.203271,-0.0498321,9.66839,0.204184,-1.03256,5.69263,4.01733,-0.636475
1291,-7.41354e+36,0.195181,-0.048701,9.69465,0.360879,-1.10158,-3.57593,4.01465,-0.634277
1292,-7.41882e+36,0.189014,-0.0408201,9.69812,0.204914,-1.02681,-6.17529,4.01685,-0.637939
1293,-7.4241e+36,0.201909,-0.0460886,9.69569,0.315977,-1.02658,0.172852,4.0166,-0.638428
1294,-7.42938e+36,0.205821,-0.0611194,9.72496,0.391565,-1.1159,-5.36255,4.01685,-0.636475
1295,-7.43466e+36,0.209895,-0.0461973,9.67963,0.298713,-1.10465,-2.84521,4.01709,-0.642822
1296,-7.43994e+36,0.209106,-0.0297359,9.69139,0.243002,-0.995536,7.06934,4.01782,-0.636719
1297,-7.44523e+36,0.206561,-0.0638754,9.677,0.333292,-1.09648,-4.86597,4.01807,-0.638428
1298,-7.45051e+36,0.197016,-0.0474027,9.71116,0.407958,-1.08109,1.61426,4.01733,-0.637207
1299,-7.45579e+36,0.203958,-0.0287428,9.71012,0.277889,-1.03416,-5.91528,4.01855,-0.637207
1300,-7.46107e+36,0.205484,-0.0406555,9.71748,0.298457,-1.13193,4.94604,4.0166,-0.639893
1301,-7.46635e+36,0.213299,-0.0391339,9.68999,0.302197,-1.15181,0.0146484,4.01685,-0.633301
1302,-7.47163e+36,0.200296,-0.0434592,9.70041,0.247997,-0.927248,5.65161,4.01855,-0.639893
1303,-7.47692e+36,0.195359,-0.0445854,9.75967,0.238725,-1.04674,-6.38477,4.0166,-0.634766
1304,-7.4822e+36,0.212809,-0.0556096,9.70199,0.349634,-1.03923,-5.75513,4.0166,-0.637451
1305,-7.48748e+36,0.231782,-0.0608415,9.69641,0.356448,-1.17314,-6.80688,4.01807,-0.637451
1306,-7.49276e+36,0.200469,-0.0329497,9.70717,0.357652,-1.15491,-0.0126953,4.01782,-0.636719
1307,-7.49804e+36,0.199692,-0.0252847,9.68337,0.31234,-1.05588,0.853271,4.01758,-0.639404
1308,-7.50332e+36,0.19601,-0.0469355,9.70858,0.275558,-1.11687,-7.64551,4.01758,-0.631836
1309,-7.50861e+36,0.185641,-0.0460256,9.70357,0.26001,-1.06469,-1.00732,4.01611,-0.637939
1310,-7.51389e+36,0.200972,-0.0518863,9.69311,0.220385,-0.99428,6.83521,4.01611,-0.637207
1311,-7.51917e+36,0.223415,-0.0625861,9.73162,0.391206,-1.13695,-3.55103,4.01562,-0.638916
1312,-7.52445e+36,0.200599,-0.0380583,9.70882,0.257218,-1.13065,4.70898,4.01758,-0.639893
1313,-7.52973e+36,0.203585,-0.0499193,9.69154,0.203633,-0.989824,3.13477,4.01782,-0.635742
1314,-7.53501e+36,0.186082,-0.0548237,9.72537,0.24605,-1.02773,-5.73145,4.01831,-0.640381
1315,-7.5403e+36,0.190727,-0.0687181,9.70208,0.180606,-0.858961,-5.2334,4.01855,-0.63623
1316,-7.54558e+36,0.205299,-0.034571,9.70703,0.313621,-1.03923,-6.25439,4.01685,-0.638428
1317,-7.55086e+36,0.197649,-0.029424,9.68089,0.29213,-1.02855,4.78809,4.01733,-0.635498
1318,-7.55614e+36,0.176478,-0.0283887,9.68936,0.343717,-1.02689,-0.851807,4.01733,-0.634277
1319,-7.56142e+36,0.190228,-0.0193715,9.66622,0.312711,-1.01607,2.25586,4.01831,-0.638916
1320,-7.5667e+36,0.203762,-0.0340952,9.69721,0.260189,-1.0418,3.84277,4.01807,-0.632324
1321,-7.57199e+36,0.197686,-0.0474805,9.70615,0.298047,-1.13997,-4.41968,4.01782,-0.638916
1322,-7.57727e+36,0.218919,-0.0311578,9.72457,0.379039,-1.07187,1.95679,4.01611,-0.637207
1323,-7.58255e+36,0.201377,-0.0553779,9.72649,0.373942,-1.08006,-7.5376,4.01538,-0.63623
1324,-7.58783e+36,0.19724,-0.0126404,9.69992,0.295742,-1.18654,-5.41577,4.01758,-0.639404
1325,-7.59311e+36,0.181898,-0.0308728,9.69208,0.259703,-1.06249,-6.8855,4.01807,-0.635742
1326,-7.59839e+36,0.188,-0.0241516,9.7136,0.290184,-1.03862,-0.013916,4.01831,-0.639893
1327,-7.60368e+36,0.194017,-0.057992,9.72919,0.281296,-1.09538,7.70239,4.01514,-0.633789
1328,-7.60896e+36,0.185585,-0.0528165,9.69946,0.275071,-1.04128,-7.93335,4.01733,-0.637451
1329,-7.61424e+36,0.206446,-0.0560174,9.65411,0.385264,-1.00401,6.31079,4.01587,-0.634033
1330,-7.61952e+36,0.19904,-0.0611735,9.68398,0.443459,-1.13956,-0.564453,4.01855,-0.631104
1331,-7.6248e+36,0.217029,-0.0520077,9.7311,0.404449,-1.1273,-2.71338,4.01685,-0.639404
