timestamp_ms,acc_x,acc_y,acc_z,gyr_x,gyr_y,gyr_z,mag_x,mag_y,mag_z
0,-4.59621e+36,0,0,0,0,0,0,0,-0.162842
1,-4.59885e+36,-0.115369,0.0226243,9.68669,-0.66556,-0.260702,6.68799,-4.06567,-0.169678
2,-4.60149e+36,-0.129645,0.0106649,9.70868,-0.58526,-0.141032,5.32715,-4.06812,-0.165771
3,-4.60413e+36,-0.123966,0.017174,9.69219,-0.534467,-0.195078,1.78955,-4.05884,-0.169434
4,-4.60677e+36,-0.127363,0.0237262,9.68488,-0.609798,-0.329578,-4.2666,-4.07251,-0.168213
5,-4.60941e+36,-0.12506,0.0155503,9.6739,-0.613128,-0.245922,3.20947,-4.06152,-0.16626
6,-4.61205e+36,-0.126541,0.00735312,9.67207,-0.486927,-0.232731,-3.66943,-4.05664,-0.169678
7,-4.61469e+36,-0.12255,0.00482102,9.68489,-0.550885,-0.191748,-2.72778,-4.0542,-0.166748
8,-4.61733e+36,-0.12594,-0.00328315,9.6739,-0.601653,-0.259011,-7.34253,-4.05566,-0.16748
9,-4.61997e+36,-0.120046,-0.0242982,9.69218,-0.611489,-0.198434,3.90771,-4.06543,-0.166748
10,-4.62261e+36,-0.11431,-0.00866222,9.67205,-0.650883,-0.152456,-2.83325,-4.0542,-0.167969
11,-4.62526e+36,-0.12142,0.00683812,9.71054,-0.611463,-0.267208,-4.09155,-4.05469,-0.165771
12,-4.6279e+36,-0.12285,-0.0123387,9.70137,-0.573784,-0.265568,-2.67163,-4.05737,-0.167236
13,-4.63054e+36,-0.122535,0.0125175,9.67212,-0.659029,-0.227941,-3.35181,-4.05859,-0.169678
14,-4.63318e+36,-0.109331,-0.0159151,9.70869,-0.673757,-0.250891,1.78955,-4.05884,-0.166748
15,-4.63582e+36,-0.129151,-0.0113514,9.67026,-0.639382,-0.20663,7.24829,-4.06128,-0.170898
16,-4.63846e+36,-0.136197,0.00783236,9.68678,-0.555778,-0.203223,-5.34741,-4.05713,-0.167725
17,-4.6411e+36,-0.128572,-0.00210294,9.6831,-0.649244,-0.157425,-4.66406,-4.05786,-0.167725
18,-4.64374e+36,-0.133887,0.018941,9.68132,-0.485159,-0.337621,-5.86865,-4.05957,-0.169678
19,-4.64638e+36,-0.127864,-0.012868,9.6831,-0.65575,-0.195283,-3.37988,-4.06885,-0.165771
20,-4.64902e+36,-0.149544,-0.0120525,9.69776,-0.714688,-0.272331,5.26855,-4.06299,-0.166992
21,-4.65166e+36,-0.127199,-0.00756771,9.71424,-0.491793,-0.244155,4.67529,-4.05908,-0.165283
22,-4.6543e+36,-0.145196,-0.00819716,9.66666,-0.608184,-0.270486,5.72095,-4.05664,-0.169434
23,-4.65695e+36,-0.126505,7.15284e-05,9.69048,-0.618174,-0.127943,-7.5979,-4.06079,-0.166748
24,-4.65959e+36,-0.119016,0.00287544,9.68681,-0.686897,-0.200252,-5.16553,-4.06738,-0.165283
25,-4.66223e+36,-0.122385,-0.00175245,9.67948,-0.550834,-0.208192,4.78247,-4.06104,-0.169922
26,-4.66487e+36,-0.125782,0.0120598,9.69419,-0.554164,-0.163931,-6.39038,-4.06152,-0.163818
27,-4.66751e+36,-0.118186,-0.00517866,9.69046,-0.578728,-0.24249,-1.41577,-4.05493,-0.170898
28,-4.67015e+36,-0.125239,0.00869786,9.66489,-0.605008,-0.19997,7.97729,-4.05688,-0.168213
29,-4.67279e+36,-0.113966,0.0187333,9.7052,-0.63595,-0.295204,6.19995,-4.06177,-0.16626
30,-4.67543e+36,-0.130003,-0.00406984,9.66853,-0.636053,-0.286777,5.55688,-4.05151,-0.168945
31,-4.67807e+36,-0.138737,-0.00143789,9.69602,-0.59174,-0.255809,-2.29785,-4.0625,-0.16333
32,-4.68071e+36,-0.145689,-0.000493546,9.70337,-0.686897,-0.239442,7.29663,-4.05811,-0.168945
33,-4.68335e+36,-0.1179,0.00229606,9.69603,-0.509851,-0.253837,-2.20361,-4.0542,-0.165283
34,-4.68599e+36,-0.13594,0.0235185,9.68514,-0.608312,-0.175432,7.0874,-4.05811,-0.168457
35,-4.68864e+36,-0.130218,0.0208863,9.67232,-0.562309,-0.235984,0.00390625,-4.05737,-0.169189
36,-4.69128e+36,-0.124295,-0.00557206,9.68138,-0.583672,-0.178787,1.32178,-4.06201,-0.165771
37,-4.69392e+36,-0.125761,-0.0284896,9.71061,-0.591766,-0.236189,5.47778,-4.06299,-0.17041
38,-4.69656e+36,-0.127364,-0.00546477,9.69239,-0.622913,-0.23624,-5.59058,-4.06348,-0.16333
39,-4.6992e+36,-0.105197,0.0158364,9.65583,-0.476911,-0.327632,6.08984,-4.05786,-0.171875
40,-4.70184e+36,-0.126691,0.0132185,9.66317,-0.575449,-0.206579,-4.60791,-4.06104,-0.167236
41,-4.70448e+36,-0.126369,0.0232181,9.70534,-0.614742,-0.263827,-3.88159,-4.05469,-0.167236
42,-4.70712e+36,-0.129631,0.00590825,9.6888,-0.65575,-0.250866,0.369629,-4.05615,-0.167236
43,-4.70976e+36,-0.118258,-0.0022676,9.68328,-0.688485,-0.238059,-7.37061,-4.06592,-0.165283
44,-4.7124e+36,-0.110561,-0.00697402,9.70339,-0.57212,-0.242592,-2.14453,-4.05933,-0.16748
45,-4.71504e+36,-0.134023,-0.0096921,9.69793,-0.681979,-0.218285,4.46802,-4.06104,-0.16333
46,-4.71768e+36,-0.13737,-0.0179465,9.68509,-0.687102,-0.165698,7.13794,-4.05688,-0.169434
47,-4.72033e+36,-0.142749,-0.00233183,9.65405,-0.567099,-0.288442,4.99023,-4.05908,-0.167236
48,-4.72297e+36,-0.136791,-0.00509998,9.687,-0.621427,-0.195052,7.66211,-4.05688,-0.167236
49,-4.72561e+36,-0.132843,-0.000543683,9.70167,-0.821423,-0.187419,-2.61597,-4.06006,-0.166992
50,-4.72825e+36,-0.117901,-0.0107867,9.69611,-0.663818,-0.29026,-1.25439,-4.05811,-0.165283
51,-4.73089e+36,-0.110246,0.00479252,9.69434,-0.632876,-0.17725,3.57764,-4.06226,-0.170898
52,-4.73353e+36,-0.137385,-0.00728159,9.70717,-0.709975,-0.146283,7.09204,-4.06201,-0.167725
53,-4.73617e+36,-0.118916,-0.00631596,9.69433,-0.624577,-0.210114,3.12231,-4.06665,-0.167236
54,-4.73881e+36,-0.13883,0.00557901,9.68529,-0.575296,-0.280297,-3.29785,-4.05981,-0.16748
55,-4.74145e+36,-0.151404,0.0177749,9.63594,-0.523145,-0.16867,0.0065918,-4.05933,-0.164307
56,-4.74409e+36,-0.134581,0.00412719,9.66514,-0.565588,-0.244078,6.82349,-4.05737,-0.167969
57,-4.74673e+36,-0.148836,0.00855496,9.7,-0.649218,-0.219847,6.14575,-4.06055,-0.163818
58,-4.74937e+36,-0.150317,-0.00874793,9.67977,-0.641124,-0.209704,3.77661,-4.05396,-0.166992
59,-4.75202e+36,-0.137227,-0.00775368,9.67609,-0.559184,-0.180119,-2.98633,-4.05737,-0.168213
60,-4.75466e+36,-0.113344,0.0263652,9.67624,-0.562207,-0.281757,-0.36377,-4.05688,-0.166748
61,-4.7573e+36,-0.127671,0.0491472,9.70023,-0.641047,-0.201763,-4.24219,-4.05981,-0.169434
62,-4.75994e+36,-0.13084,-0.00289702,9.67247,-0.708157,-0.286982,-0.418213,-4.05566,-0.164307
63,-4.76258e+36,-0.11406,0.0199348,9.68357,-0.647323,-0.280681,-0.184814,-4.06519,-0.17041
64,-4.76522e+36,-0.131927,0.0133687,9.69092,-0.518073,-0.178762,7.68823,-4.06836,-0.163818
65,-4.76786e+36,-0.12428,-0.00376943,9.6853,-0.675499,-0.250635,2.67163,-4.05127,-0.166504
66,-4.7705e+36,-0.140317,-0.0140625,9.6981,-0.629291,-0.301838,4.15381,-4.06152,-0.165527
67,-4.77314e+36,-0.145317,-0.0259934,9.69989,-0.654008,-0.264134,-7.86133,-4.06006,-0.164307
68,-4.77578e+36,-0.139659,0.00067952,9.68357,-0.538027,-0.153737,-0.259521,-4.0564,-0.168457
69,-4.77842e+36,-0.141275,-0.00909824,9.65971,-0.540998,-0.234242,4.88525,-4.05908,-0.163818
70,-4.78106e+36,-0.106041,-0.0189407,9.67789,-0.547863,-0.121155,5.77734,-4.05933,-0.166992
71,-4.78371e+36,-0.109531,-0.0161654,9.69074,-0.575449,-0.204965,-6.28564,-4.06152,-0.167236
72,-4.78635e+36,-0.116592,-0.00253946,9.71466,-0.614614,-0.277172,-6.33911,-4.06079,-0.168701
73,-4.78899e+36,-0.110905,0.0151354,9.68365,-0.545814,-0.229555,0.180664,-4.06372,-0.168945
74,-4.79163e+36,-0.12516,0.0105004,9.70014,-0.595121,-0.205016,-2.14185,-4.06128,-0.165283
75,-4.79427e+36,-0.135811,0.00765354,9.71297,-0.53941,-0.238904,-5.24512,-4.05518,-0.168945
76,-4.79691e+36,-0.128072,-0.00589415,9.71288,-0.586822,-0.262136,7.13818,-4.05737,-0.166748
77,-4.79955e+36,-0.111241,-0.0119739,9.69265,-0.508058,-0.283242,-4.45361,-4.05835,-0.165039
78,-4.80219e+36,-0.130983,-0.0110225,9.69639,-0.672348,-0.175637,7.3501,-4.05884,-0.167969
79,-4.80483e+36,-0.132607,-0.0082973,9.69094,-0.606494,-0.237982,4.90259,-4.06421,-0.163818
80,-4.80747e+36,-0.130682,0.0184472,9.67465,-0.598348,-0.244232,-4.61035,-4.05908,-0.168457
81,-4.81011e+36,-0.137771,0.0304425,9.6638,-0.60155,-0.27858,-6.18604,-4.05762,-0.163818
82,-4.81275e+36,-0.124474,0.0258075,9.68936,-0.63969,-0.136293,4.67725,-4.06055,-0.166992
83,-4.8154e+36,-0.125983,0.00837598,9.69291,-0.545788,-0.218285,7.37695,-4.0708,-0.168457
84,-4.81804e+36,-0.123708,-0.00712423,9.70379,-0.642636,-0.224842,-5.81519,-4.0603,-0.167236
85,-4.82068e+36,-0.101563,0.0086764,9.69471,-0.697245,-0.0905207,6.66919,-4.05957,-0.172363
86,-4.82332e+36,-0.112286,-0.0178966,9.67805,-0.575168,-0.293411,2.57812,-4.06006,-0.162354
87,-4.82596e+36,-0.123007,-0.000457675,9.67458,-0.652907,-0.132784,-3.98462,-4.05615,-0.169922
88,-4.8286e+36,-0.139395,0.0148922,9.68391,-0.576832,-0.246204,6.58667,-4.06812,-0.16626
89,-4.83124e+36,-0.146247,0.00291121,9.6985,-0.617918,-0.255809,3.31201,-4.05957,-0.16626
90,-4.83388e+36,-0.125726,0.00394826,9.70579,-0.652907,-0.142594,5.30078,-4.05615,-0.167969
91,-4.83652e+36,-0.129116,-0.0133401,9.68918,-0.732849,-0.202327,-4.65918,-4.06177,-0.165771
92,-4.83916e+36,-0.134445,0.00562929,9.69853,-0.613256,-0.180504,-0.200684,-4.06152,-0.17041
93,-4.8418e+36,-0.126763,-0.0026537,9.71493,-0.580214,-0.312519,0.416016,-4.05151,-0.164307
94,-4.84444e+36,-0.146583,0.00207432,9.68941,-0.568508,-0.317873,6.24927,-4.05908,-0.16748
95,-4.84709e+36,-0.125976,0.00136619,9.69484,-0.629137,-0.310035,-5.70972,-4.06079,-0.167236
96,-4.84973e+36,-0.0928153,0.0174887,9.66558,-0.583595,-0.253914,3.09937,-4.05762,-0.16626
97,-4.85237e+36,-0.118014,0.00727453,9.66743,-0.636437,-0.189801,-3.88501,-4.05225,-0.169189
98,-4.85501e+36,-0.137907,0.0115947,9.67853,-0.697245,-0.139393,-6.50415,-4.05469,-0.164307
99,-4.85765e+36,-0.126677,0.0141626,9.69868,-0.588871,-0.204299,5.13745,-4.05151,-0.17041
100,-4.86029e+36,-0.10991,0.0188407,9.71149,-0.629931,-0.153916,-4.66748,-4.05542,-0.165771
101,-4.86293e+36,-0.115246,0.0108724,9.6785,-0.786716,-0.297202,7.86963,-4.05493,-0.16626
102,-4.86557e+36,-0.134938,0.00594401,9.67669,-0.586694,-0.255963,-1.34082,-4.06372,-0.168945
103,-4.86821e+36,-0.12358,0.0140766,9.70605,-0.599911,-0.252428,-4.19092,-4.05908,-0.16626
104,-4.87085e+36,-0.110268,0.00046509,9.71138,-0.665509,-0.230041,3.89233,-4.06226,-0.169434
105,-4.87349e+36,-0.100741,-0.00769646,9.70762,-0.549348,-0.232142,2.1499,-4.05371,-0.164795
106,-4.87613e+36,-0.120611,0.00580811,9.72615,-0.560439,-0.289825,-7.70703,-4.05737,-0.164551
107,-4.87878e+36,-0.14036,-0.000486319,9.70786,-0.63677,-0.0950544,-1.46509,-4.05713,-0.167236
108,-4.88142e+36,-0.15139,0.00612268,9.67868,-0.668993,-0.210037,6.8772,-4.05811,-0.167236
109,-4.88406e+36,-0.132785,0.00178106,9.6676,-0.544533,-0.199432,6.19165,-4.05542,-0.168945
110,-4.8867e+36,-0.119903,0.0213154,9.66227,-0.593815,-0.200944,3.82446,-4.05078,-0.164307
111,-4.88934e+36,-0.110333,0.00592255,9.66026,-0.598297,-0.224791,5.88525,-4.06177,-0.169922
112,-4.89198e+36,-0.0896609,-0.00962057,9.68383,-0.634516,-0.234268,6.19165,-4.05542,-0.16626
113,-4.89462e+36,-0.122299,-0.00183828,9.6987,-0.570378,-0.252377,-0.412109,-4.06006,-0.167236
114,-4.89726e+36,-0.114795,0.0103646,9.68599,-0.580803,-0.165135,-2.67505,-4.05493,-0.166992
115,-4.8999e+36,-0.123551,0.00185983,9.71159,-0.691969,-0.224688,7.03027,-4.05493,-0.164307
116,-4.90254e+36,-0.119703,0.00839744,9.69518,-0.721374,-0.197486,5.77954,-4.06128,-0.169434
117,-4.90518e+36,-0.124995,0.0128681,9.6916,-0.595121,-0.21311,-6.70776,-4.05957,-0.16333
118,-4.90782e+36,-0.11735,0.0155789,9.70627,-0.577319,-0.175227,2.52344,-4.05835,-0.168457
119,-4.91047e+36,-0.111499,-0.00152356,9.69325,-0.665791,-0.193644,-5.39893,-4.05786,-0.167236
120,-4.91311e+36,-0.129546,-0.00261815,9.68968,-0.56067,-0.250277,7.03076,-4.05542,-0.16626
121,-4.91575e+36,-0.121863,0.00733191,9.71723,-0.60611,-0.324532,5.67065,-4.05835,-0.169434
122,-4.91839e+36,-0.137842,-0.016988,9.67126,-0.606596,-0.239109,7.50391,-4.05615,-0.16333
123,-4.92103e+36,-0.154165,0.00916994,9.69545,-0.521378,-0.220846,-0.151611,-4.05884,-0.169434
124,-4.92367e+36,-0.142936,0.00690955,9.67708,-0.703341,-0.236394,5.09155,-4.05664,-0.166748
125,-4.92631e+36,-0.127664,-0.0106794,9.70064,-0.657184,-0.256219,2.63184,-4.06079,-0.166748
126,-4.92895e+36,-0.131176,0.00847612,9.70089,-0.470995,-0.157989,-7.55249,-4.05566,-0.16748
127,-4.93159e+36,-0.130947,-0.0011373,9.68247,-0.544021,-0.258934,4.7832,-4.06152,-0.16333
128,-4.93423e+36,-0.123194,0.00155921,9.70446,-0.680186,-0.27397,-0.573975,-4.05688,-0.166016
129,-4.93687e+36,-0.115633,-0.00248906,9.66228,-0.691533,-0.316413,5.66479,-4.05396,-0.163818
130,-4.93951e+36,-0.146261,-0.00217446,9.67893,-0.653829,-0.26124,-4.55347,-4.06226,-0.169922
131,-4.94216e+36,-0.127478,-0.00319732,9.70265,-0.621171,-0.263955,1.73608,-4.05811,-0.166748
132,-4.9448e+36,-0.132621,-0.00941314,9.6843,-0.619993,-0.19162,-7.39429,-4.0564,-0.167725
133,-4.94744e+36,-0.161733,-0.00507137,9.67901,-0.636027,-0.265415,6.92627,-4.05542,-0.167969
134,-4.95008e+36,-0.11388,0.0020028,9.66973,-0.612616,-0.302017,5.99097,-4.06226,-0.16626
135,-4.95272e+36,-0.133436,-0.00663069,9.68622,-0.614537,-0.25271,-6.33887,-4.06079,-0.167969
136,-4.95536e+36,-0.138708,0.00522873,9.68824,-0.552473,-0.23893,-6.08105,-4.05762,-0.16626
137,-4.958e+36,-0.120239,0.0175602,9.68099,-0.639203,-0.233422,-5.59009,-4.06348,-0.164795
138,-4.96064e+36,-0.112571,-0.00106577,9.64045,-0.565921,-0.188111,-1.72827,-4.05688,-0.168213
139,-4.96328e+36,-0.11971,0.0248561,9.6921,-0.621017,-0.275609,6.61694,-4.05981,-0.165283
140,-4.96592e+36,-0.124459,-0.00186668,9.7028,-0.552345,-0.263391,0.370605,-4.05664,-0.168945
141,-4.96856e+36,-0.131391,-0.0116378,9.68258,-0.531342,-0.264134,1.46191,-4.04907,-0.165283
142,-4.9712e+36,-0.125797,0.0131755,9.69205,-0.576986,-0.279605,0.733154,-4.05347,-0.167969
143,-4.97385e+36,-0.127321,0.0125675,9.67375,-0.56067,-0.211548,5.99048,-4.06177,-0.165771
144,-4.97649e+36,-0.118029,0.0176172,9.65549,-0.506445,-0.263186,-3.24878,-4.05713,-0.167725
145,-4.97913e+36,-0.122736,-0.00198134,9.69373,-0.478679,-0.270819,1.57227,-4.05347,-0.168945
146,-4.98177e+36,-0.146298,0.00447746,9.68478,-0.588564,-0.258396,-6.71582,-4.05371,-0.165283
147,-4.98441e+36,-0.123823,-0.00708131,9.68453,-0.60009,-0.251967,-6.03296,-4.05444,-0.171387
148,-4.98705e+36,-0.143894,0.00673798,9.6647,-0.550732,-0.255425,-1.88306,-4.05859,-0.16626
149,-4.98969e+36,-0.154358,0.00363378,9.69036,-0.657133,-0.311187,6.4502,-4.05273,-0.166504
150,-4.99233e+36,-0.139287,-0.00597966,9.6682,-0.627011,-0.143978,0,-4.05444,-0.16748
151,-4.99497e+36,-0.122478,-0.00698833,9.69192,-0.590152,-0.252121,1.31396,-4.05615,-0.164795
152,-4.99761e+36,-0.12069,0.0215587,9.68682,-0.643122,-0.185191,-2.20215,-4.05566,-0.170898
153,-5.00025e+36,-0.122199,0.0116164,9.67573,-0.559184,-0.219207,-7.60303,-4.05688,-0.162354
154,-5.00289e+36,-0.0981155,0.00942745,9.66642,-0.601832,-0.213008,6.29883,-4.05737,-0.168945
155,-5.00554e+36,-0.117915,0.00639464,9.672,-0.534082,-0.286418,5.98535,-4.05835,-0.166504
156,-5.00818e+36,-0.122686,-0.00939189,9.6938,-0.535209,-0.328067,-4.32837,-4.06543,-0.166748
157,-5.01082e+36,-0.127921,-0.00614409,9.66459,-0.541152,-0.238597,4.66992,-4.05518,-0.169189
158,-5.01346e+36,-0.136905,0.00750346,9.67218,-0.598092,-0.304374,6.50439,-4.05396,-0.165283
159,-5.0161e+36,-0.145482,0.00789674,9.70339,-0.511875,-0.17328,-2.87891,-4.05933,-0.169434
160,-5.01874e+36,-0.137721,-0.00909854,9.69579,-0.634593,-0.266516,2.61816,-4.05054,-0.166748
161,-5.02138e+36,-0.152326,-0.00230306,9.65569,-0.606724,-0.208397,-4.4519,-4.05981,-0.168945
162,-5.02402e+36,-0.117164,0.00240323,9.68306,-0.527884,-0.198485,-1.02417,-4.06519,-0.168945
163,-5.02666e+36,-0.127914,0.00868355,9.69239,-0.662845,-0.120746,7.00244,-4.06519,-0.165283
164,-5.0293e+36,-0.1333,0.00605846,9.67775,-0.51459,-0.281039,4.67065,-4.05566,-0.169922
165,-5.03194e+36,-0.134574,-0.00219612,9.68863,-0.613282,-0.235753,3.72583,-4.05518,-0.161865
166,-5.03458e+36,-0.14531,0.00404851,9.69247,-0.663485,-0.282858,-6.49487,-4.06201,-0.166992
167,-5.03723e+36,-0.152456,0.0123744,9.67802,-0.594839,-0.262469,5.04395,-4.0603,-0.16626
168,-5.03987e+36,-0.126298,0.00444907,9.68509,-0.636027,-0.244437,5.14551,-4.05786,-0.165283
169,-5.04251e+36,-0.120447,0.0106363,9.70531,-0.55004,-0.151406,2.98779,-4.05273,-0.171875
170,-5.04515e+36,-0.131105,0.00766766,9.71817,-0.599424,-0.285804,0.757812,-4.06348,-0.165771
171,-5.04779e+36,-0.132592,-0.000143057,9.69244,-0.567304,-0.213059,5.35815,-4.05981,-0.169922
172,-5.05043e+36,-0.126312,-0.0214942,9.72322,-0.707952,-0.261701,-3.13965,-4.06055,-0.16626
173,-5.05307e+36,-0.115261,-0.00221023,9.72348,-0.635668,-0.295332,7.71704,-4.05859,-0.168213
174,-5.05571e+36,-0.127442,-0.0144058,9.73071,-0.551065,-0.190058,-0.883545,-4.06079,-0.167969
175,-5.05835e+36,-0.145854,-0.00570797,9.69251,-0.540409,-0.280553,1.44116,-4.0647,-0.164307
176,-5.06099e+36,-0.136376,0.0061587,9.71281,-0.608594,-0.153096,-5.2749,-4.06396,-0.169922
177,-5.06363e+36,-0.125625,0.0189336,9.67085,-0.553677,-0.289928,5.61987,-4.05957,-0.164795
178,-5.06627e+36,-0.132435,0.0124889,9.67447,-0.594558,-0.122282,4.98267,-4.05371,-0.164551
179,-5.06892e+36,-0.131898,-0.00161654,9.70172,-0.547735,-0.240031,-5.5083,-4.05444,-0.16748
180,-5.07156e+36,-0.120676,-0.00724583,9.67228,-0.58193,-0.266567,-0.052002,-4.05493,-0.165283
181,-5.0742e+36,-0.0981008,-0.0118591,9.69955,-0.543329,-0.381114,2.67651,-4.05518,-0.16748
182,-5.07684e+36,-0.122936,-0.017224,9.73261,-0.497121,-0.186087,5.93384,-4.05859,-0.16626
183,-5.07948e+36,-0.123121,-0.00796812,9.68333,-0.640996,-0.217106,6.61914,-4.06128,-0.172363
184,-5.08212e+36,-0.133622,-0.0130537,9.70348,-0.642533,-0.257551,4.46265,-4.05713,-0.164795
185,-5.08476e+36,-0.130203,0.0140413,9.67463,-0.48644,-0.315158,-0.260498,-4.05591,-0.167236
186,-5.0874e+36,-0.125611,-0.0142126,9.68331,-0.578702,-0.194207,-1.28271,-4.06787,-0.167969
187,-5.09004e+36,-0.136748,-7.15284e-05,9.65433,-0.534646,-0.202916,-6.39282,-4.05957,-0.16333
188,-5.09268e+36,-0.122064,0.0228817,9.67295,-0.601371,-0.280245,-2.46143,-4.05786,-0.169434
189,-5.09532e+36,-0.115969,0.0145417,9.68745,-0.590716,-0.183193,3.25464,-4.05591,-0.165771
190,-5.09796e+36,-0.119481,0.00865494,9.65809,-0.610182,-0.195155,2.2085,-4.05835,-0.17041
191,-5.10061e+36,-0.129352,-0.0296342,9.69415,-0.632902,-0.208807,3.62866,-4.06104,-0.167969
192,-5.10325e+36,-0.164351,0.00703124,9.71335,-0.576756,-0.252761,2.89551,-4.06201,-0.165771
193,-5.10589e+36,-0.142328,0.0196273,9.69879,-0.55045,-0.116878,3.98511,-4.05298,-0.169434
194,-5.10853e+36,-0.110662,0.00258218,9.71478,-0.681057,-0.135448,7.09082,-4.06104,-0.165283
195,-5.11117e+36,-0.130747,0.0104358,9.71508,-0.655571,-0.265927,-6.18579,-4.05762,-0.169922
196,-5.11381e+36,-0.121219,-0.0008798,9.68918,-0.6422,-0.267976,4.25854,-4.06152,-0.16626
197,-5.11645e+36,-0.110061,0.00766069,9.68196,-0.524247,-0.270051,1.37109,-4.05981,-0.167236
198,-5.11909e+36,-0.0914774,0.0180181,9.69304,-0.597145,-0.231809,-7.97729,-4.05176,-0.169922
199,-5.12173e+36,-0.12795,0.0239978,9.68609,-0.554984,-0.145233,0.737305,-4.0564,-0.167236
200,-5.12437e+36,-0.132835,-0.000679413,9.6857,-0.549477,-0.167568,-3.75195,-4.06519,-0.171387
201,-5.12701e+36,-0.130583,0.00157353,9.72237,-0.677727,-0.138829,5.72729,-4.06152,-0.165771
202,-5.12965e+36,-0.132027,-0.0191625,9.70005,-0.663767,-0.25312,4.67529,-4.05908,-0.16748
203,-5.1323e+36,-0.134094,0.00941329,9.68596,-0.726215,-0.219488,-6.49609,-4.06104,-0.165771
204,-5.13494e+36,-0.118981,-0.00229619,9.682,-0.508033,-0.208449,-1.49097,-4.06885,-0.164307
205,-5.13758e+36,-0.136777,-0.00911987,9.6985,-0.548273,-0.204888,-3.36304,-4.05029,-0.169922
206,-5.14022e+36,-0.127965,0.0146203,9.66776,-0.666149,-0.174279,4.67383,-4.05811,-0.163818
207,-5.14286e+36,-0.121885,0.00411265,9.69502,-0.573195,-0.306295,-2.35547,-4.05835,-0.169922
208,-5.1455e+36,-0.128808,-0.00372646,9.67114,-0.593328,-0.237956,-2.40479,-4.06055,-0.167725
209,-5.14814e+36,-0.13428,0.0118451,9.66966,-0.650012,-0.296331,0.601807,-4.0647,-0.16748
210,-5.15078e+36,-0.131791,0.00685242,9.69338,-0.603292,-0.234473,-2.93213,-4.05859,-0.16748
211,-5.15342e+36,-0.142613,0.0132185,9.68812,-0.661897,-0.253735,-0.0292969,-4.06396,-0.166748
212,-5.15606e+36,-0.140389,0.0122025,9.6936,-0.591356,-0.285215,-4.8728,-4.05884,-0.169922
213,-5.1587e+36,-0.123751,0.015772,9.66976,-0.589742,-0.122359,2.30957,-4.05542,-0.163818
214,-5.16134e+36,-0.127213,0.0252781,9.69929,-0.548221,-0.160268,-6.60376,-4.05908,-0.16748
215,-5.16399e+36,-0.125081,0.0138337,9.68443,-0.574066,-0.252736,1.7793,-4.05103,-0.168213
216,-5.16663e+36,-0.155746,0.010436,9.69377,-0.639357,-0.255656,-4.03735,-4.05591,-0.166748
217,-5.16927e+36,-0.133257,-0.00268232,9.68238,-0.615228,-0.193464,-5.71362,-4.05786,-0.168945
218,-5.17191e+36,-0.145982,0.0106506,9.69375,-0.594148,-0.176585,2.72998,-4.05591,-0.164307
219,-5.17455e+36,-0.117943,-0.00276815,9.70613,-0.671119,-0.313006,6.58252,-4.06519,-0.169922
220,-5.17719e+36,-0.130754,-0.00283968,9.64947,-0.6422,-0.256834,-4.12109,-4.06348,-0.164307
221,-5.17983e+36,-0.135904,0.0101356,9.68275,-0.630802,-0.100331,0.477783,-4.05859,-0.166504
222,-5.18247e+36,-0.115762,0.0239334,9.69938,-0.627421,-0.29669,-7.86597,-4.05664,-0.167969
223,-5.18511e+36,-0.106098,0.0107579,9.68075,-0.600218,-0.1939,-0.4104,-4.06152,-0.163818
224,-5.18775e+36,-0.116734,0.0095135,9.68999,-0.535722,-0.28273,-4.45581,-4.05688,-0.169922
225,-5.19039e+36,-0.103466,0.0140766,9.71016,-0.631903,-0.305834,7.04004,-4.06226,-0.165283
226,-5.19303e+36,-0.11981,0.0118451,9.66997,-0.732823,-0.187752,-2.17236,-4.06958,-0.16748
227,-5.19568e+36,-0.120389,-0.0248204,9.70955,-0.508058,-0.253171,-3.08984,-4.05835,-0.169434
228,-5.19832e+36,-0.151762,-0.00544331,9.68275,-0.523581,-0.325967,-3.08569,-4.06128,-0.16626
229,-5.20096e+36,-0.131212,-0.000464935,9.69003,-0.620069,-0.164879,7.31494,-4.06372,-0.17041
230,-5.2036e+36,-0.10363,0.0134044,9.71026,-0.543893,-0.300532,5.14209,-4.05493,-0.165283
231,-5.20624e+36,-0.106871,0.00386254,9.68815,-0.646017,-0.217106,0.165039,-4.06006,-0.17041
232,-5.20888e+36,-0.10303,0.00682381,9.68087,-0.686769,-0.222818,5.20435,-4.0625,-0.165283
233,-5.21152e+36,-0.0950255,0.00157363,9.71736,-0.67765,-0.188931,-6.39673,-4.05664,-0.169189
234,-5.21416e+36,-0.120654,0.0112085,9.71229,-0.553344,-0.151841,6.77124,-4.05762,-0.167969
235,-5.2168e+36,-0.114953,0.0139911,9.72149,-0.602549,-0.168286,-7.9729,-4.05518,-0.163818
236,-5.21944e+36,-0.138258,-0.0158295,9.68261,-0.657236,-0.26585,-6.97363,-4.05688,-0.169434
237,-5.22208e+36,-0.134338,-0.00766069,9.68827,-0.607134,-0.209191,6.03271,-4.0542,-0.161865
238,-5.22472e+36,-0.136498,0.0138692,9.6668,-0.631212,-0.204222,2.73853,-4.06226,-0.168457
239,-5.22737e+36,-0.124753,0.00330461,9.7013,-0.669197,-0.178378,1.05981,-4.06226,-0.167969
240,-5.23001e+36,-0.110254,0.012346,9.67576,-0.571377,-0.304861,5.41089,-4.06006,-0.165771
241,-5.23265e+36,-0.127728,0.00316871,9.70687,-0.618379,-0.229017,-4.09131,-4.05469,-0.168457
242,-5.23529e+36,-0.133422,0.0226244,9.69271,-0.59384,-0.169566,-5.06543,-4.06396,-0.162842
243,-5.23793e+36,-0.11996,0.000157548,9.68848,-0.565178,-0.262315,-4.66064,-4.06079,-0.170898
244,-5.24057e+36,-0.152284,-0.0158865,9.68475,-0.578216,-0.269001,2.05396,-4.06055,-0.164795
245,-5.24321e+36,-0.130626,0.0254353,9.70382,-0.683516,-0.257961,-5.13721,-4.05713,-0.164062
246,-5.24585e+36,-0.134016,0.0176604,9.67623,-0.508622,-0.246947,-3.88647,-4.05127,-0.166504
247,-5.24849e+36,-0.117371,0.0177103,9.65597,-0.659054,-0.298918,-7.08911,-4.04907,-0.16626
248,-5.25113e+36,-0.114653,0.0086907,9.69241,-0.632441,-0.288391,-2.25391,-4.05591,-0.168945
249,-5.25377e+36,-0.13079,0.00760347,9.68523,-0.591177,-0.176021,1.20532,-4.05322,-0.16333
250,-5.25641e+36,-0.117485,-0.00916263,9.67194,-0.659515,-0.20517,7.87134,-4.0564,-0.168457
251,-5.25906e+36,-0.122321,-0.0128967,9.71039,-0.657415,-0.262187,-3.2522,-4.05469,-0.166748
252,-5.2617e+36,-0.140446,-0.0137336,9.68858,-0.470021,-0.264672,2.26489,-4.06104,-0.169678
253,-5.26434e+36,-0.142105,-0.0035548,9.69251,-0.616791,-0.211369,0.633057,-4.05688,-0.171387
254,-5.26698e+36,-0.132721,0.00287544,9.70175,-0.578754,-0.232552,4.20215,-4.05835,-0.164307
255,-5.26962e+36,-0.136212,0.00238892,9.68349,-0.502551,-0.167363,6.34961,-4.05615,-0.169922
256,-5.27226e+36,-0.116041,0.0164587,9.69647,-0.58672,-0.268258,0.316895,-4.05591,-0.164307
257,-5.2749e+36,-0.104396,0.00300401,9.69792,-0.5588,-0.248996,0.636719,-4.05981,-0.166016
258,-5.27754e+36,-0.128136,0.0231822,9.71877,-0.666098,-0.354527,-2.88184,-4.05688,-0.16748
259,-5.28018e+36,-0.135081,0.0241122,9.70973,-0.597426,-0.292694,0.548828,-4.06445,-0.161377
260,-5.28282e+36,-0.132585,0.00708131,9.69836,-0.591023,-0.300199,-1.61841,-4.0603,-0.169434
261,-5.28546e+36,-0.143258,0.00285376,9.67642,-0.548503,-0.302735,-5.34546,-4.05859,-0.163818
262,-5.2881e+36,-0.140446,-0.0131252,9.70168,-0.561746,-0.299302,5.66895,-4.05688,-0.16748
263,-5.29075e+36,-0.136669,-0.00444192,9.69088,-0.606238,-0.27689,-0.363281,-4.05737,-0.167969
264,-5.29339e+36,-0.127157,0.00190246,9.7038,-0.598015,-0.265722,-6.97046,-4.05933,-0.164795
265,-5.29603e+36,-0.124631,-0.00146618,9.73486,-0.708182,-0.223074,1.11108,-4.06152,-0.170898
266,-5.29867e+36,-0.104825,0.00306142,9.67436,-0.694889,-0.298303,-2.72998,-4.05273,-0.164795
267,-5.30131e+36,-0.0952329,0.010858,9.6983,-0.588948,-0.201635,-5.76416,-4.05908,-0.171875
268,-5.30395e+36,-0.104238,0.0101785,9.68375,-0.615408,-0.164623,-5.18457,-4.06128,-0.166748
269,-5.30659e+36,-0.116712,0.00355506,9.68189,-0.664664,-0.150714,6.68433,-4.06274,-0.168457
270,-5.30923e+36,-0.143507,-0.00259633,9.72051,-0.596018,-0.182834,5.77148,-4.05493,-0.168945
271,-5.31187e+36,-0.132535,0.00608004,9.71514,-0.733925,-0.304246,0.946289,-4.05542,-0.164795
272,-5.31451e+36,-0.146583,-0.0112371,9.69291,-0.670862,-0.23122,6.71558,-4.05493,-0.169434
273,-5.3174e+36,-0.131498,-0.0138694,9.70006,-0.558185,-0.181093,-5.13794,-4.05664,-0.165771
274,-5.32268e+36,-0.122986,0.0102213,9.66396,-0.679469,-0.209652,5.13916,-4.05298,-0.16748
275,-5.32796e+36,-0.111334,-4.29171e-05,9.68011,-0.64115,-0.202788,6.56763,-4.06201,-0.167725
276,-5.33324e+36,-0.1332,0.00416295,9.67496,-0.657722,-0.178608,6.26636,-4.06372,-0.16626
277,-5.33852e+36,-0.111005,0.0193055,9.71177,-0.677189,-0.235139,1.63062,-4.05762,-0.166992
278,-5.3438e+36,-0.130632,0.0122457,9.71732,-0.613077,-0.201456,-4.90283,-4.06763,-0.164307
279,-5.34909e+36,-0.129102,0.0283753,9.69759,-0.621581,-0.210293,1.84302,-4.05957,-0.168945
280,-5.35437e+36,-0.112064,0.0237689,9.71565,-0.572837,-0.282756,-1.96729,-4.06567,-0.165771
281,-5.35965e+36,-0.131712,0.018812,9.71576,-0.619378,-0.281628,-1.93921,-4.05591,-0.165771
282,-5.36493e+36,-0.122893,0.0285829,9.66466,-0.555061,-0.144234,-7.65015,-4.06104,-0.168457
283,-5.37021e+36,-0.124459,0.025879,9.66647,-0.63572,-0.147436,-6.60742,-4.05615,-0.16626
284,-5.37549e+36,-0.136562,0.00961342,9.6827,-0.696144,-0.233986,-3.84863,-4.07153,-0.168457
285,-5.38078e+36,-0.133271,-0.0285898,9.70736,-0.627574,-0.126586,2.9436,-4.05884,-0.164307
286,-5.38606e+36,-0.145961,-0.0262223,9.71124,-0.592227,-0.331295,4.5188,-4.05981,-0.164551
287,-5.39134e+36,-0.133622,0.00143772,9.68255,-0.504191,-0.302017,6.98193,-4.05811,-0.166504
288,-5.39662e+36,-0.146119,0.00409841,9.68094,-0.68057,-0.223817,6.03784,-4.05811,-0.164795
289,-5.4019e+36,-0.142506,0.00758917,9.65354,-0.723269,-0.070516,-7.70435,-4.05981,-0.169434
290,-5.40718e+36,-0.131834,0.0301993,9.67054,-0.716405,-0.109424,3.3623,-4.05786,-0.165771
291,-5.41247e+36,-0.118236,0.0141412,9.6975,-0.672527,-0.180401,-7.21802,-4.06274,-0.172363
292,-5.41775e+36,-0.105219,0.0119094,9.68818,-0.696041,-0.183987,3.77808,-4.05493,-0.167725
293,-5.42303e+36,-0.0955337,0.000164468,9.6878,-0.7277,-0.124306,-5.39868,-4.05786,-0.164307
294,-5.42831e+36,-0.109853,-0.00161654,9.70259,-0.738561,-0.16096,-7.33643,-4.06006,-0.168945
295,-5.43359e+36,-0.130132,0.0080541,9.69393,-0.7579,-0.235036,6.60767,-4.05249,-0.16333
296,-5.43887e+36,-0.136841,-0.00592241,9.69,-0.664075,-0.207936,-7.85938,-4.06152,-0.168457
297,-5.44416e+36,-0.157098,-0.00114445,9.6629,-0.693966,-0.183475,-0.0969238,-4.06055,-0.165283
298,-5.44944e+36,-0.160467,0.00623728,9.6888,-0.785384,-0.114777,1.78564,-4.05591,-0.165527
299,-5.45472e+36,-0.128422,-0.00977078,9.72654,-0.687102,-0.204914,4.83545,-4.06128,-0.169678
300,-5.46e+36,-0.119717,0.011931,9.70875,-0.714432,-0.17702,-0.842529,-4.05225,-0.166748
301,-5.46528e+36,-0.118373,0.0231108,9.66511,-0.756849,-0.14472,-0.308105,-4.05957,-0.17041
302,-5.47056e+36,-0.136126,0.00699539,9.66305,-0.710462,-0.215211,-6.50464,-4.05469,-0.164307
303,-5.47585e+36,-0.137378,0.0172097,9.72017,-0.673424,-0.160704,-6.13696,-4.05493,-0.166992
304,-5.48113e+36,-0.122929,0.0159795,9.67606,-0.802673,-0.158142,-6.65723,-4.05835,-0.168701
305,-5.48641e+36,-0.129753,-0.00147349,9.66286,-0.760384,-0.15202,3.30591,-4.05518,-0.165283
306,-5.49169e+36,-0.125418,-0.00706701,9.6975,-0.69535,-0.236547,7.81787,-4.05566,-0.168945
307,-5.49697e+36,-0.151969,-0.0187762,9.72864,-0.73874,-0.162215,-1.04443,-4.05811,-0.164795
308,-5.50225e+36,-0.130597,-0.0509855,9.74771,-0.682696,-0.18765,5.93188,-4.05762,-0.168945
309,-5.50754e+36,-0.12335,-0.0371875,9.74987,-0.513412,-0.175458,5.6394,-4.06567,-0.16333
310,-5.51282e+36,-0.0882875,0.00695972,9.68481,-0.483879,-0.317335,1.74194,-4.0625,-0.165039
311,-5.5181e+36,-0.117421,0.00454921,9.65393,-0.517894,-0.249534,1.99829,-4.05786,-0.16626
312,-5.52338e+36,-0.130483,0.0340616,9.67324,-0.628958,-0.279041,4.93726,-4.05884,-0.167236
313,-5.52866e+36,-0.158836,0.0326813,9.72852,-0.615689,-0.165647,6.92993,-4.05835,-0.168945
314,-5.53394e+36,-0.14124,-0.0127392,9.6996,-0.751086,-0.177097,0.133301,-4.06738,-0.162842
315,-5.53923e+36,-0.111248,-0.0210222,9.72288,-0.721297,-0.204376,-4.95776,-4.06543,-0.16748
316,-5.54451e+36,-0.115819,0.0031401,9.67054,-0.531214,-0.335803,-1.6167,-4.06177,-0.164307
317,-5.54979e+36,-0.132163,0.0164872,9.67479,-0.726625,-0.206528,-3.92871,-4.05884,-0.166016
318,-5.55507e+36,-0.134037,0.0316227,9.68444,-0.752598,-0.259831,0.996094,-4.05371,-0.166992
319,-5.56035e+36,-0.145224,-0.00545762,9.71468,-0.606212,-0.125049,3.57593,-4.06079,-0.162354
320,-5.56563e+36,-0.120711,-0.0292623,9.70642,-0.59279,-0.240723,-4.74438,-4.06836,-0.167969
321,-5.57092e+36,-0.115497,-0.0181396,9.67741,-0.614588,-0.258781,-0.468262,-4.05737,-0.164307
322,-5.5762e+36,-0.113666,-0.00437754,9.67964,-0.5171,-0.29108,-0.673584,-4.06079,-0.166016
323,-5.58148e+36,-0.141004,0.0153572,9.70621,-0.694504,-0.150689,2.05371,-4.06006,-0.169678
324,-5.58676e+36,-0.153807,0.0213372,9.70656,-0.575296,-0.346304,3.41992,-4.06201,-0.16626
325,-5.59204e+36,-0.122063,0.00908411,9.68757,-0.57714,-0.309855,4.6582,-4.04639,-0.169922
326,-5.59732e+36,-0.119352,-0.00816139,9.68706,-0.55068,-0.259498,-1.57056,-4.05713,-0.163818
327,-5.60261e+36,-0.110855,0.0296771,9.68995,-0.556111,-0.204427,0.53125,-4.05933,-0.169434
328,-5.60789e+36,-0.112071,0.0109651,9.67479,-0.613077,-0.244283,-4.34888,-4.05835,-0.166748
329,-5.61317e+36,-0.146247,0.0118737,9.70638,-0.649167,-0.216184,-6.02246,-4.06226,-0.16748
330,-5.61845e+36,-0.127127,-0.00517151,9.71119,-0.554523,-0.197921,5.25317,-4.05981,-0.166504
331,-5.62373e+36,-0.149945,0.016745,9.66634,-0.647579,-0.222332,5.83105,-4.06055,-0.164795
332,-5.62901e+36,-0.131799,-0.00765368,9.73138,-0.632262,-0.318487,5.29565,-4.05225,-0.168945
333,-5.6343e+36,-0.137685,0.00880524,9.69717,-0.673834,-0.183705,-7.24756,-4.04834,-0.16333
334,-5.63958e+36,-0.135289,0.0054004,9.71907,-0.653906,-0.199458,-1.01514,-4.07202,-0.16748
335,-5.64486e+36,-0.118794,0.000493546,9.68394,-0.558749,-0.245717,-6.81152,-4.06055,-0.166748
336,-5.65014e+36,-0.104138,0.0128608,9.68602,-0.569174,-0.321151,-7.44165,-4.06006,-0.165283
337,-5.65542e+36,-0.101499,-0.00580811,9.67263,-0.546403,-0.191441,-0.568604,-4.06079,-0.169922
338,-5.6607e+36,-0.128551,-0.00432032,9.69318,-0.579573,-0.154505,4.88867,-4.06201,-0.164795
339,-5.66599e+36,-0.148486,-0.00904119,9.68231,-0.474683,-0.159269,5.72583,-4.06055,-0.169922
340,-5.67127e+36,-0.145046,0.011895,9.69759,-0.589051,-0.206143,-2.09351,-4.05811,-0.167236
341,-5.67655e+36,-0.15036,0.00607276,9.67553,-0.592227,-0.311751,5.93604,-4.06055,-0.164795
342,-5.68183e+36,-0.131147,-0.010715,9.67481,-0.550629,-0.322201,7.84595,-4.06812,-0.168457
343,-5.68711e+36,-0.133894,-0.017875,9.70031,-0.655186,-0.27461,-6.65601,-4.05933,-0.162842
344,-5.69239e+36,-0.13207,-0.00926293,9.6896,-0.556264,-0.234114,-5.45654,-4.05371,-0.166504
345,-5.69768e+36,-0.112035,0.00521442,9.68801,-0.608517,-0.306013,0.38916,-4.06274,-0.165283
346,-5.70296e+36,-0.109882,0.00633742,9.6844,-0.577012,-0.209012,-5.95605,-4.0647,-0.167969
347,-5.70824e+36,-0.124581,0.0195559,9.69051,-0.550732,-0.314031,6.79688,-4.06812,-0.168701
348,-5.71352e+36,-0.128751,-0.00568651,9.7063,-0.596812,-0.219949,4.20459,-4.0603,-0.165771
349,-5.7188e+36,-0.126241,-0.0175817,9.7096,-0.679699,-0.171462,-3.92944,-4.05835,-0.168945
350,-5.72408e+36,-0.131391,-0.0172741,9.72254,-0.561899,-0.162907,1.5249,-4.05713,-0.16626
351,-5.72937e+36,-0.144516,-0.00856911,9.69917,-0.586617,-0.151841,2.73169,-4.05737,-0.166992
352,-5.73465e+36,-0.130211,0.00766049,9.69404,-0.540998,-0.255707,-0.680176,-4.05591,-0.164795
353,-5.73993e+36,-0.124881,0.0252925,9.69641,-0.579061,-0.242695,-0.210205,-4.0542,-0.167236
354,-5.74521e+36,-0.109052,-0.00940599,9.68049,-0.648501,-0.187035,-4.14111,-4.05688,-0.167969
355,-5.75049e+36,-0.113924,-0.014785,9.70057,-0.623143,-0.262725,0.574951,-4.05273,-0.16333
356,-5.75577e+36,-0.117228,-0.0174313,9.69507,-0.601192,-0.251532,5.62256,-4.06152,-0.166992
357,-5.76106e+36,-0.139674,0.00182398,9.67584,-0.641893,-0.383189,-5.28955,-4.06128,-0.161865
358,-5.76634e+36,-0.160818,0.00119438,9.70361,-0.610285,-0.346561,4.302,-4.05444,-0.167969
359,-5.77162e+36,-0.148057,0.0139194,9.69108,-0.579855,-0.248125,0.0107422,-4.06226,-0.166748
360,-5.7769e+36,-0.119967,-0.00201701,9.67376,-0.65014,-0.210728,1.62476,-4.05322,-0.166748
361,-5.78218e+36,-0.13609,0.00824007,9.70913,-0.581853,-0.23145,-0.358398,-4.06128,-0.169922
362,-5.78746e+36,-0.128208,-0.0081757,9.68839,-0.67806,-0.201635,6.3999,-4.05444,-0.165283
363,-5.79275e+36,-0.128157,-0.0034761,9.68309,-0.640766,-0.246844,2.26318,-4.06006,-0.16748
364,-5.79803e+36,-0.144802,0.00998537,9.67645,-0.68495,-0.185114,-5.14209,-4.05371,-0.166748
365,-5.80331e+36,-0.131076,-0.00919856,9.68484,-0.636795,-0.303657,-7.60132,-4.05835,-0.166748
366,-5.80859e+36,-0.127142,-0.00622297,9.68127,-0.608902,-0.185601,-3.56006,-4.06006,-0.165527
367,-5.81387e+36,-0.126491,-0.0148208,9.69384,-0.569942,-0.207168,4.44556,-4.07568,-0.163818
368,-5.81915e+36,-0.135869,0.00396966,9.70194,-0.570455,-0.234191,7.45605,-4.05981,-0.164551
369,-5.82444e+36,-0.132971,0.0313652,9.68269,-0.504831,-0.261624,0.788574,-4.05566,-0.164307
370,-5.82972e+36,-0.12099,0.0175817,9.70044,-0.560363,-0.165955,-5.97729,-4.05664,-0.164551
371,-5.835e+36,-0.13197,0.0102715,9.66556,-0.516024,-0.297202,4.14258,-4.05322,-0.166748
372,-5.84028e+36,-0.152907,0.00897649,9.71712,-0.466179,-0.354936,-6.92871,-4.05127,-0.167236
373,-5.84556e+36,-0.154208,0.00311864,9.70599,-0.62112,-0.166697,-1.93921,-4.05591,-0.170898
374,-5.85084e+36,-0.122414,-0.0114374,9.70512,-0.563078,-0.136524,4.08691,-4.05054,-0.163818
375,-5.85613e+36,-0.119309,0.00160939,9.67807,-0.584978,-0.261777,-7.49707,-4.05786,-0.170898
376,-5.86141e+36,-0.127685,0.00449914,9.72229,-0.548145,-0.233858,-5.03711,-4.05371,-0.166748
377,-5.86669e+36,-0.122549,0.0157221,9.69698,-0.477039,-0.226455,-3.19165,-4.06079,-0.165771
378,-5.87197e+36,-0.134738,0.00713138,9.70238,-0.546608,-0.314876,2.04834,-4.05615,-0.169434
379,-5.87725e+36,-0.13147,-0.0280966,9.69386,-0.514872,-0.255041,-7.34302,-4.05518,-0.16333
380,-5.88253e+36,-0.108408,0.0066736,9.69476,-0.619788,-0.261393,2.67529,-4.0542,-0.168457
381,-5.88782e+36,-0.134667,-0.0157076,9.70905,-0.544969,-0.389772,3.89038,-4.0603,-0.16333
382,-5.8931e+36,-0.129774,0.0101715,9.68425,-0.512003,-0.23186,-0.734131,-4.05469,-0.165527
383,-5.89838e+36,-0.139581,-0.00989953,9.70389,-0.53316,-0.351683,-3.14868,-4.05371,-0.168213
384,-5.90366e+36,-0.147305,0.00316171,9.66783,-0.460032,-0.190493,-6.92212,-4.05615,-0.165283
385,-5.90894e+36,-0.155853,0.00644471,9.70474,-0.590562,-0.202122,-5.34204,-4.06104,-0.167969
386,-5.91422e+36,-0.142649,-0.00269662,9.69145,-0.718864,-0.303144,0.265869,-4.05713,-0.164795
387,-5.91951e+36,-0.131004,-0.00734579,9.70035,-0.591689,-0.24272,4.78076,-4.05957,-0.16748
388,-5.92479e+36,-0.113923,-0.00997822,9.71472,-0.573272,-0.14636,3.94434,-4.06201,-0.164795
389,-5.93007e+36,-0.120339,0.010343,9.68072,-0.571044,-0.292566,7.90918,-4.04541,-0.166748
390,-5.93535e+36,-0.110068,-0.00374109,9.70212,-0.559492,-0.206092,0.63623,-4.05933,-0.167969
391,-5.94063e+36,-0.133765,-0.00311149,9.69151,-0.477449,-0.317591,-2.14551,-4.05835,-0.164307
392,-5.94591e+36,-0.125954,-0.00872647,9.68208,-0.479678,-0.270486,-3.50781,-4.05981,-0.171387
393,-5.9512e+36,-0.125683,-0.00574373,9.68222,-0.546915,-0.191953,2.62549,-4.0564,-0.165771
394,-5.95648e+36,-0.141548,-0.00457067,9.7155,-0.672681,-0.206195,5.67139,-4.05884,-0.166992
395,-5.96176e+36,-0.1182,0.00045076,9.67141,-0.627241,-0.309061,5.92749,-4.0542,-0.168213
396,-5.96704e+36,-0.133894,0.00824723,9.72143,-0.570173,-0.255476,3.67871,-4.05933,-0.165771
397,-5.97232e+36,-0.135518,-0.00734597,9.67146,-0.627139,-0.287315,1.05469,-4.05835,-0.169434
398,-5.9776e+36,-0.127048,-0.0148992,9.71143,-0.693787,-0.297663,7.45996,-4.06226,-0.164795
399,-5.98289e+36,-0.14541,-0.00690965,9.69918,-0.63887,-0.202557,-7.29272,-4.05396,-0.17041
400,-5.98817e+36,-0.145166,-0.0144199,9.67881,-0.689023,-0.302017,0.742432,-4.0603,-0.165771
401,-5.99345e+36,-0.146218,-0.00964919,9.72119,-0.625243,-0.219386,6.55933,-4.05615,-0.165039
402,-5.99873e+36,-0.130583,0.0113085,9.68877,-0.581879,-0.247126,-3.19482,-4.05835,-0.165039
403,-6.00401e+36,-0.142349,-0.0134688,9.68075,-0.576602,-0.268412,1.05469,-4.05835,-0.164307
404,-6.00929e+36,-0.136398,0.0188191,9.63239,-0.590946,-0.229504,6.9231,-4.05347,-0.167969
405,-6.01458e+36,-0.125504,0.00298989,9.70134,-0.500297,-0.241747,6.66406,-4.05566,-0.164307
406,-6.01986e+36,-0.12388,0.0137549,9.68892,-0.660207,-0.266823,-7.07568,-4.05933,-0.167969
407,-6.02514e+36,-0.127785,-0.0255713,9.68209,-0.653778,-0.178992,-1.36108,-4.05664,-0.168213
408,-6.03042e+36,-0.129695,-0.010622,9.69736,-0.573016,-0.194386,-5.29395,-4.05786,-0.167236
409,-6.0357e+36,-0.151462,-0.013705,9.68845,-0.619199,-0.177225,3.93945,-4.05811,-0.168457
410,-6.04098e+36,-0.14094,0.0092987,9.6965,-0.64635,-0.195257,5.41357,-4.06201,-0.165771
411,-6.04627e+36,-0.134981,-0.000243197,9.68694,-0.620044,-0.20289,-5.18384,-4.06177,-0.17041
412,-6.05155e+36,-0.112565,0.00255335,9.70692,-0.678854,-0.31047,1.21606,-4.06152,-0.165771
413,-6.05683e+36,-0.119181,-0.0110654,9.69557,-0.575731,-0.216261,3.41675,-4.05957,-0.167236
414,-6.06211e+36,-0.1337,-0.00522853,9.69969,-0.613307,-0.247075,2.36304,-4.05615,-0.168701
415,-6.06739e+36,-0.113744,0.00592263,9.69069,-0.53252,-0.118748,2.4939,-4.06763,-0.164795
416,-6.07267e+36,-0.139159,-0.00251065,9.67612,-0.600807,-0.185729,-1.30371,-4.0603,-0.168457
417,-6.07796e+36,-0.142649,-0.00160224,9.67442,-0.432138,-0.176021,4.67578,-4.05957,-0.16333
418,-6.08324e+36,-0.147514,0.00165207,9.71313,-0.640356,-0.349378,6.41089,-4.06226,-0.166016
419,-6.08852e+36,-0.150661,-0.00778957,9.69271,-0.622298,-0.305808,4.66943,-4.05469,-0.16748
420,-6.0938e+36,-0.115354,-0.00103001,9.7163,-0.568431,-0.300557,-1.06616,-4.07275,-0.167725
421,-6.09908e+36,-0.131683,-4.27138e-05,9.70196,-0.610976,-0.270691,2.99585,-4.05859,-0.168457
422,-6.10436e+36,-0.124374,-0.00301142,9.66697,-0.641252,-0.169592,-1.73242,-4.05347,-0.165283
423,-6.10965e+36,-0.125954,-0.00067952,9.67628,-0.621862,-0.182066,6.05615,-4.06372,-0.169922
424,-6.11493e+36,-0.118072,-0.0120742,9.67028,-0.61761,-0.273765,-3.03833,-4.05762,-0.167236
425,-6.12021e+36,-0.13119,0.00834041,9.67679,-0.538949,-0.216543,-3.62256,-4.052,-0.164307
426,-6.12549e+36,-0.126305,-0.0112872,9.69434,-0.56254,-0.225713,6.14404,-4.05908,-0.167969
427,-6.13077e+36,-0.13614,0.00677374,9.67139,-0.572862,-0.18391,5.46509,-4.06128,-0.163818
428,-6.13605e+36,-0.122328,-0.0104575,9.68156,-0.589153,-0.307678,0.52832,-4.05737,-0.168457
429,-6.14134e+36,-0.150989,-0.00614429,9.71152,-0.568175,-0.265799,-3.92529,-4.06128,-0.162842
430,-6.14662e+36,-0.151762,0.00926995,9.67001,-0.689766,-0.307986,6.71216,-4.05249,-0.165527
431,-6.1519e+36,-0.116155,0.0118737,9.70444,-0.592022,-0.245103,-1.25586,-4.05664,-0.168213
432,-6.15718e+36,-0.132013,-0.00694541,9.68019,-0.516281,-0.280604,-6.82031,-4.05371,-0.165771
433,-6.16246e+36,-0.126541,-0.00143772,9.66569,-0.678521,-0.214724,-4.27466,-4.06665,-0.168945
434,-6.16774e+36,-0.128501,0.0119526,9.67178,-0.612129,-0.339312,2.35791,-4.05225,-0.16333
435,-6.17303e+36,-0.135561,-0.0149423,9.72038,-0.616022,-0.194463,6.34937,-4.05566,-0.17041
436,-6.17831e+36,-0.134502,0.000157505,9.68799,-0.655059,-0.191236,4.83228,-4.05884,-0.16626
437,-6.18359e+36,-0.132378,0.00588679,9.70655,-0.527628,-0.294666,7.32397,-4.07056,-0.167725
438,-6.18887e+36,-0.144866,0.00825448,9.70871,-0.63426,-0.213034,5.66089,-4.05103,-0.166504
439,-6.19415e+36,-0.122693,0.00169522,9.68617,-0.666508,-0.233192,-2.64404,-4.07031,-0.16333
440,-6.19943e+36,-0.136098,0.0158934,9.66132,-0.600014,-0.241132,6.24902,-4.05908,-0.168945
441,-6.20472e+36,-0.124152,0.0039126,9.67537,-0.546121,-0.242695,2.57349,-4.05664,-0.16333
442,-6.21e+36,-0.116463,0.00165222,9.67337,-0.663972,-0.194284,2.56763,-4.05225,-0.165527
443,-6.21528e+36,-0.137434,-0.00521425,9.71013,-0.705928,-0.258806,-7.64893,-4.06201,-0.168213
444,-6.22056e+36,-0.140818,-0.00944175,9.6954,-0.651472,-0.223254,-4.71851,-4.05664,-0.165283
445,-6.22584e+36,-0.138851,-0.00487824,9.69743,-0.609158,-0.27274,2.83984,-4.05981,-0.169922
446,-6.23112e+36,-0.120254,-0.00486404,9.69169,-0.62655,-0.258012,-2.57129,-4.05396,-0.163818
447,-6.23641e+36,-0.132685,-0.0079182,9.68814,-0.520276,-0.21621,2.31226,-4.05737,-0.17041
448,-6.24169e+36,-0.125562,0.00281092,9.683,-0.55652,-0.162343,3.87744,-4.05103,-0.169189
449,-6.24697e+36,-0.135353,0.0237547,9.68036,-0.494432,-0.192926,-0.415039,-4.05811,-0.165283
450,-6.25225e+36,-0.125911,0.00510713,9.63367,-0.610925,-0.273995,-5.65991,-4.05859,-0.166016
451,-6.25753e+36,-0.111262,-0.0138479,9.68589,-0.61966,-0.250891,4.56812,-4.05762,-0.16626
452,-6.26281e+36,-0.121169,0.000937022,9.65185,-0.559876,-0.221051,2.62378,-4.05493,-0.16748
453,-6.2681e+36,-0.13398,-0.0207576,9.70255,-0.571787,-0.280501,-1.15259,-4.05566,-0.163818
454,-6.27338e+36,-0.127156,-0.00249634,9.69039,-0.625961,-0.315158,0.390381,-4.06372,-0.16748
455,-6.27866e+36,-0.146783,-0.00759632,9.68505,-0.621683,-0.212496,-3.979,-4.06055,-0.164795
456,-6.28394e+36,-0.134209,0.00824699,9.69103,-0.612052,-0.308114,0.214111,-4.05737,-0.16626
457,-6.28922e+36,-0.132793,-0.00997822,9.71232,-0.576423,-0.132554,0.472168,-4.0542,-0.16748
458,-6.2945e+36,-0.131884,0.0185259,9.7135,-0.579727,-0.199099,0.632568,-4.05688,-0.165283
459,-6.29979e+36,-0.127786,0.00585818,9.6928,-0.582852,-0.183961,-2.66675,-4.06079,-0.169922
460,-6.30507e+36,-0.148729,-0.0142556,9.69603,-0.497352,-0.220462,5.03955,-4.05688,-0.16626
461,-6.31035e+36,-0.129316,0.00323308,9.67263,-0.581751,-0.239749,4.73022,-4.06079,-0.167236
462,-6.31563e+36,-0.147542,0.0172597,9.69554,-0.644429,-0.154736,4.93604,-4.05786,-0.16748
463,-6.32091e+36,-0.122836,-0.00598693,9.6814,-0.631878,-0.309625,4.61841,-4.05591,-0.165771
464,-6.32619e+36,-0.112815,0.0267445,9.67529,-0.640074,-0.213648,-5.9231,-4.05786,-0.171875
465,-6.33148e+36,-0.122814,0.0121527,9.68591,-0.562719,-0.110449,-2.3916,-4.06274,-0.162354
466,-6.33676e+36,-0.129917,0.0109152,9.68968,-0.592304,-0.307857,-2.98535,-4.05786,-0.166016
467,-6.34204e+36,-0.13227,-0.0120812,9.69064,-0.651114,-0.263289,1.36255,-4.05347,-0.166504
468,-6.34732e+36,-0.136148,0.00153777,9.68949,-0.555726,-0.137958,-6.39014,-4.06201,-0.165283
469,-6.3526e+36,-0.135654,-0.00495692,9.69476,-0.624859,-0.247203,-0.3125,-4.05615,-0.167969
470,-6.35788e+36,-0.153679,-0.00307572,9.69884,-0.59863,-0.291362,-7.96362,-4.06201,-0.164795
471,-6.36317e+36,-0.136584,-0.0104432,9.69464,-0.585593,-0.218233,-0.727051,-4.06006,-0.169922
472,-6.36845e+36,-0.12285,0.0203786,9.69574,-0.570941,-0.278427,-2.10474,-4.0498,-0.164795
473,-6.37373e+36,-0.130496,-0.0149208,9.67977,-0.638512,-0.316746,-3.06201,-4.07129,-0.165771
474,-6.37901e+36,-0.128708,-0.00463493,9.67656,-0.599424,-0.246332,-0.530029,-4.05029,-0.166504
475,-6.38429e+36,-0.124817,-8.58341e-05,9.68222,-0.608492,-0.299354,-6.86377,-4.06079,-0.16333
476,-6.38957e+36,-0.117271,0.0113659,9.70096,-0.600551,-0.207168,-6.54956,-4.0603,-0.168945
477,-6.39486e+36,-0.133243,0.00109438,9.69168,-0.62678,-0.261675,-6.79248,-4.06665,-0.162354
478,-6.40014e+36,-0.1335,0.0182471,9.69796,-0.636719,-0.218566,3.88647,-4.05786,-0.165527
479,-6.40542e+36,-0.141791,-0.00419157,9.67887,-0.582647,-0.204888,-0.308105,-4.05957,-0.16626
480,-6.4107e+36,-0.133551,-0.0161442,9.68926,-0.569276,-0.279528,-0.502686,-4.06274,-0.166748
481,-6.41598e+36,-0.111634,-0.00184543,9.6987,-0.58485,-0.34884,-0.467285,-4.05835,-0.168457
482,-6.42126e+36,-0.113637,0.00548623,9.6771,-0.567996,-0.371483,-4.76831,-4.05835,-0.164795
483,-6.42655e+36,-0.133951,-0.0121598,9.70791,-0.709284,-0.181631,-7.28345,-4.06079,-0.169922
484,-6.43183e+36,-0.124796,-0.0121814,9.69314,-0.672118,-0.276967,0.419189,-4.05396,-0.168213
485,-6.43711e+36,-0.128715,0.0113659,9.71627,-0.610746,-0.291541,-5.87183,-4.05713,-0.165283
486,-6.44239e+36,-0.120947,-0.000822577,9.68817,-0.634132,-0.196538,-5.13867,-4.05615,-0.165039
487,-6.44767e+36,-0.118959,0.00685254,9.70317,-0.611975,-0.257397,-2.72949,-4.05322,-0.167725
488,-6.45295e+36,-0.128572,-0.0199779,9.70039,-0.545865,-0.234012,0.322754,-4.0603,-0.169434
489,-6.45824e+36,-0.12544,-0.00861215,9.67704,-0.538616,-0.180119,-7.43945,-4.06152,-0.164307
490,-6.46352e+36,-0.132449,-0.00156628,9.70134,-0.61948,-0.257756,6.30029,-4.05835,-0.164551
491,-6.4688e+36,-0.138773,0.0134472,9.66733,-0.487567,-0.223228,0.632324,-4.0564,-0.165283
492,-6.47408e+36,-0.139874,0.00671652,9.67809,-0.537796,-0.224253,0.795654,-4.06104,-0.165283
493,-6.47936e+36,-0.12456,0.00726729,9.70355,-0.654469,-0.262674,4.0166,-4.06885,-0.16748
494,-6.48464e+36,-0.13335,0.00436323,9.69814,-0.606238,-0.2304,3.93018,-4.05127,-0.165283
495,-6.48993e+36,-0.11426,-0.00678805,9.69918,-0.673987,-0.308677,-2.40576,-4.06006,-0.167969
496,-6.49521e+36,-0.119925,0.000135904,9.68132,-0.658081,-0.243899,4.7207,-4.05396,-0.167725
497,-6.50049e+36,-0.130861,0.0126391,9.69861,-0.64991,-0.240595,-6.1377,-4.05444,-0.165283
498,-6.50577e+36,-0.129488,-0.0072959,9.71425,-0.649654,-0.371278,4.66089,-4.04834,-0.166992
499,-6.51105e+36,-0.13559,0.00912687,9.68949,-0.601832,-0.222255,-4.18823,-4.06104,-0.16333
500,-6.51633e+36,-0.126133,0.00864779,9.68934,-0.654572,-0.228812,4.09644,-4.05786,-0.167969
501,-6.52162e+36,-0.125339,0.00658062,9.71495,-0.638256,-0.219002,0.531006,-4.05884,-0.162842
502,-6.5269e+36,-0.132843,0.00658062,9.68765,-0.660181,-0.334881,1.52954,-4.06055,-0.166016
503,-6.53218e+36,-0.124166,-0.0126534,9.69402,-0.54087,-0.163265,5.09619,-4.06006,-0.166992
504,-6.53746e+36,-0.126162,-0.00595117,9.6889,-0.66848,-0.24062,6.35864,-4.0625,-0.164795
505,-6.54274e+36,-0.131712,-0.0402703,9.69118,-0.677727,-0.276403,-6.02344,-4.06128,-0.168945
506,-6.54802e+36,-0.145382,-0.0157007,9.68159,-0.652267,-0.243002,-3.97803,-4.06104,-0.165771
507,-6.55331e+36,-0.12559,0.0022603,9.68759,-0.633722,-0.205605,1.15942,-4.05835,-0.169922
508,-6.55859e+36,-0.116219,0.00681666,9.69683,-0.52732,-0.158398,1.15112,-4.052,-0.166748
509,-6.56387e+36,-0.13026,-0.0118593,9.67428,-0.526219,-0.181298,2.41602,-4.0564,-0.165283
510,-6.56915e+36,-0.123537,0.00947036,9.67883,-0.488566,-0.231681,4.45093,-4.04834,-0.16748
511,-6.57443e+36,-0.115497,0.00319017,9.68762,-0.504933,-0.247049,7.08691,-4.05811,-0.16333
512,-6.57971e+36,-0.109753,0.0110941,9.7044,-0.599271,-0.229734,-2.83252,-4.05469,-0.16748
513,-6.585e+36,-0.147892,0.00543635,9.6939,-0.584747,-0.222665,-1.36426,-4.0542,-0.16333
514,-6.59028e+36,-0.139172,0.0117165,9.66658,-0.592893,-0.147461,7.29175,-4.0542,-0.168945
515,-6.59556e+36,-0.136756,0.00837576,9.68293,-0.557212,-0.314773,6.09375,-4.06079,-0.167725
516,-6.60084e+36,-0.137871,-0.00297558,9.67148,-0.558185,-0.314876,2.23291,-4.06836,-0.165771
517,-6.60612e+36,-0.147692,-0.00598693,9.71008,-0.66118,-0.151918,3.25757,-4.05786,-0.167969
518,-6.6114e+36,-0.124903,0.0166876,9.69607,-0.666431,-0.180145,-4.12134,-4.06348,-0.163818
519,-6.61669e+36,-0.111999,0.0134117,9.67925,-0.617226,-0.312084,4.40649,-4.05444,-0.168945
520,-6.62197e+36,-0.119789,-0.00971356,9.67655,-0.610182,-0.254708,4.19751,-4.05493,-0.16626
521,-6.62725e+36,-0.122013,0.0107579,9.68858,-0.578626,-0.267489,3.46436,-4.05591,-0.168213
522,-6.63253e+36,-0.125883,0.0128608,9.66129,-0.621632,-0.313365,-2.56592,-4.05786,-0.167969
523,-6.63781e+36,-0.125611,-0.0150424,9.68939,-0.687947,-0.26959,4.5708,-4.05957,-0.165283
524,-6.64309e+36,-0.141061,0.00585845,9.67787,-0.576397,-0.358343,-3.40527,-4.05786,-0.168945
525,-6.64838e+36,-0.13629,-0.00444907,9.68835,-0.570583,-0.175995,-5.60938,-4.05737,-0.164307
526,-6.65366e+36,-0.129366,0.00313295,9.67212,-0.636591,-0.180401,-7.5249,-4.06812,-0.166992
527,-6.65894e+36,-0.13403,0.000622297,9.70149,-0.591253,-0.290619,2.78198,-4.05566,-0.167236
528,-6.66422e+36,-0.128215,0.0116162,9.72761,-0.725702,-0.184089,3.52368,-4.06104,-0.167725
529,-6.6695e+36,-0.120482,-0.00904835,9.68437,-0.65552,-0.178608,1.16089,-4.05933,-0.167969
530,-6.67478e+36,-0.122485,0.00568661,9.69983,-0.610157,-0.20891,5.97583,-4.05103,-0.165283
531,-6.68007e+36,-0.133422,5.00699e-05,9.67416,-0.56441,-0.241004,4.14673,-4.05615,-0.171387
532,-6.68535e+36,-0.136841,0.00422018,9.6818,-0.697348,-0.215672,-3.45532,-4.05957,-0.165283
533,-6.69063e+36,-0.146605,-0.0109152,9.69966,-0.611745,-0.24874,-0.941406,-4.05664,-0.166992
534,-6.69591e+36,-0.148951,0.0016879,9.68386,-0.68723,-0.231655,0.00634766,-4.05884,-0.167725
535,-6.70119e+36,-0.148672,0.00733166,9.69885,-0.50606,-0.196179,2.36572,-4.05811,-0.163818
536,-6.70647e+36,-0.128243,0.0123029,9.7134,-0.678214,-0.161856,3.40796,-4.05273,-0.168457
537,-6.71176e+36,-0.122543,-0.00303996,9.67411,-0.669326,-0.303247,2.62793,-4.05835,-0.164795
538,-6.71704e+36,-0.12961,0.00915564,9.69872,-0.649321,-0.210267,-2.67798,-4.05249,-0.166016
539,-6.72232e+36,-0.15282,-0.00816139,9.67457,-0.523248,-0.248151,3.88379,-4.05591,-0.165283
540,-6.7276e+36,-0.145139,-0.0053648,9.68377,-0.490359,-0.271946,-1.49512,-4.06592,-0.166748
541,-6.73288e+36,-0.145846,-0.0177176,9.69606,-0.595019,-0.224381,-1.66821,-4.0625,-0.169434
542,-6.73816e+36,-0.132506,0.00881946,9.6733,-0.643583,-0.136908,4.67383,-4.05811,-0.164307
543,-6.74345e+36,-0.112793,-0.00241766,9.71459,-0.666226,-0.249098,0.786621,-4.0542,-0.169922
544,-6.74873e+36,-0.13903,0.00600109,9.68623,-0.616842,-0.208218,-5.07886,-4.06177,-0.165283
545,-6.75401e+36,-0.121913,-0.0015164,9.68742,-0.604112,-0.211548,2.83813,-4.05835,-0.164795
546,-6.75929e+36,-0.129545,0.010157,9.68634,-0.558467,-0.200611,0.896973,-4.05811,-0.165527
547,-6.76457e+36,-0.132349,0.00291836,9.7026,-0.498453,-0.245026,4.93579,-4.05786,-0.162354
548,-6.76985e+36,-0.121148,0.00462789,9.70068,-0.612616,-0.304886,4.98218,-4.05322,-0.168945
549,-6.77514e+36,-0.1228,0.0156574,9.7178,-0.553754,-0.235036,-6.37817,-4.06274,-0.16333
550,-6.78042e+36,-0.132535,-0.0106005,9.70395,-0.522377,-0.0633696,0.948242,-4.05737,-0.166016
551,-6.7857e+36,-0.150074,0.00374795,9.67935,-0.48165,-0.219335,7.84302,-4.06616,-0.16748
552,-6.79098e+36,-0.133708,0.0226745,9.70566,-0.515461,-0.27274,1.84448,-4.06055,-0.166748
553,-6.79626e+36,-0.116563,0.0138336,9.69944,-0.496225,-0.326351,-1.3562,-4.06055,-0.169434
554,-6.80154e+36,-0.114531,0.0300491,9.72958,-0.610746,-0.214775,-4.87427,-4.05786,-0.165771
555,-6.80683e+36,-0.129896,-0.00598709,9.68418,-0.569174,-0.192645,3.2522,-4.05396,-0.169922
556,-6.81211e+36,-0.135897,0.00947752,9.68327,-0.547325,-0.348482,-1.10083,-4.05542,-0.168213
557,-6.81739e+36,-0.12697,-0.0180037,9.67446,-0.632544,-0.261393,-2.67041,-4.05835,-0.165771
558,-6.82267e+36,-0.129989,0.0139838,9.67431,-0.565895,-0.250789,-3.98462,-4.05615,-0.166504
559,-6.82795e+36,-0.129974,-0.000307341,9.72317,-0.577473,-0.264697,-6.92627,-4.05322,-0.164307
560,-6.83323e+36,-0.154437,0.00521463,9.68365,-0.601269,-0.270281,7.82056,-4.05762,-0.168945
561,-6.83852e+36,-0.140217,-0.0121098,9.6954,-0.604983,-0.24769,6.30054,-4.05835,-0.164307
562,-6.8438e+36,-0.140789,0.00382677,9.68892,-0.708592,-0.219898,4.93945,-4.06079,-0.166504
563,-6.84908e+36,-0.138193,0.0273669,9.67726,-0.556418,-0.198587,-6.28564,-4.06152,-0.166504
564,-6.85436e+36,-0.121813,0.00910569,9.71091,-0.69453,-0.2992,-3.40918,-4.05493,-0.167236
565,-6.85964e+36,-0.132443,0.00942009,9.7112,-0.565716,-0.254298,4.2522,-4.05664,-0.168945
566,-6.86492e+36,-0.150389,0.0045349,9.70222,-0.612872,-0.260932,-1.83105,-4.05835,-0.164307
567,-6.87021e+36,-0.132699,0.00525742,9.65059,-0.657159,-0.143619,6.53442,-4.06885,-0.168945
568,-6.87549e+36,-0.15031,0.00875508,9.69154,-0.659387,-0.304758,3.57251,-4.05835,-0.168701
569,-6.88077e+36,-0.120875,0.00336916,9.66138,-0.614434,-0.210856,3.56885,-4.05591,-0.16626
570,-6.88605e+36,-0.125067,-0.0147633,9.67161,-0.632953,-0.209448,2.64722,-4.06445,-0.166992
571,-6.89133e+36,-0.120661,0.0138408,9.67302,-0.658952,-0.255476,-4.1394,-4.05835,-0.165283
572,-6.89661e+36,-0.112714,0.0109654,9.68194,-0.734283,-0.237418,2.4231,-4.06177,-0.167969
573,-6.9019e+36,-0.125367,-0.0125388,9.71408,-0.588871,-0.23122,-0.36084,-4.05933,-0.164795
574,-6.90718e+36,-0.137249,-0.00767516,9.66328,-0.64553,-0.372636,6.03101,-4.05273,-0.166504
575,-6.91246e+36,-0.12958,0.00507868,9.6895,-0.618891,-0.212086,7.35034,-4.05884,-0.167725
576,-6.91774e+36,-0.136069,-0.0119454,9.67599,-0.518714,-0.227096,1.83984,-4.05713,-0.165283
577,-6.92302e+36,-0.13021,-0.0109653,9.68331,-0.532699,-0.240133,-0.254639,-4.0603,-0.16748
578,-6.9283e+36,-0.128787,-0.00175973,9.66912,-0.554471,-0.200918,2.33179,-4.06396,-0.163818
579,-6.93359e+36,-0.116126,0.00556491,9.66562,-0.572043,-0.166057,-6.12866,-4.06128,-0.168457
580,-6.93887e+36,-0.143465,0.0134402,9.68499,-0.639357,-0.199894,-1.09961,-4.05591,-0.16626
581,-6.94415e+36,-0.124824,0.00841174,9.67521,-0.629239,-0.192568,-6.91919,-4.05859,-0.16626
582,-6.94943e+36,-0.132535,-0.00703124,9.70032,-0.581802,-0.244667,0.742432,-4.0603,-0.167969
583,-6.95471e+36,-0.136855,-0.00077966,9.66595,-0.555496,-0.209268,-6.08374,-4.05566,-0.16333
584,-6.95999e+36,-0.124967,-0.000908411,9.69875,-0.597401,-0.18496,7.97339,-4.05396,-0.167969
585,-6.96528e+36,-0.142506,-0.0135189,9.69669,-0.608594,-0.280271,2.89478,-4.06152,-0.162842
586,-6.97056e+36,-0.130861,0.0125675,9.68317,-0.527961,-0.311418,-6.13257,-4.05835,-0.167969
587,-6.97584e+36,-0.139037,0.00685958,9.69962,-0.601858,-0.205631,-3.5415,-4.06519,-0.16748
588,-6.98112e+36,-0.117793,0.0223669,9.68717,-0.520814,-0.175791,-3.88452,-4.05225,-0.165771
589,-6.9864e+36,-0.130761,-0.00506403,9.69342,-0.627293,-0.225815,2.15259,-4.05566,-0.166992
590,-6.99168e+36,-0.123687,0.00700251,9.69762,-0.661155,-0.304451,6.92847,-4.05737,-0.164307
591,-6.99697e+36,-0.136283,0.0108079,9.69998,-0.607288,-0.267182,1.63574,-4.06152,-0.16748
592,-7.00225e+36,-0.111606,0.00179526,9.70272,-0.613896,-0.145105,-7.96704,-4.05957,-0.166748
593,-7.00753e+36,-0.139709,-0.0221667,9.69662,-0.663895,-0.228479,-3.98999,-4.05225,-0.165283
594,-7.01281e+36,-0.139452,0.00571502,9.67245,-0.692993,-0.272817,5.6709,-4.05835,-0.16748
595,-7.01809e+36,-0.123372,0.0218949,9.67486,-0.522684,-0.261906,-0.205078,-4.05811,-0.163818
596,-7.02337e+36,-0.144065,0.00985662,9.6949,-0.62678,-0.239442,2.94141,-4.05688,-0.168457
597,-7.02866e+36,-0.152427,0.00580824,9.71144,-0.576961,-0.293642,2.56763,-4.05225,-0.165771
598,-7.03394e+36,-0.117328,-0.00758927,9.66967,-0.583236,-0.209473,-5.15137,-4.04688,-0.16748
599,-7.03922e+36,-0.126033,-0.00120156,9.69777,-0.642123,-0.287059,6.45483,-4.05615,-0.166016
600,-7.0445e+36,-0.118057,-0.0120309,9.68424,-0.58946,-0.192901,7.82593,-4.06152,-0.165283
601,-7.04978e+36,-0.122535,0.0105005,9.68926,-0.599501,-0.302914,-7.18823,-4.05347,-0.17041
602,-7.05506e+36,-0.133422,0.0147635,9.68612,-0.665458,-0.17638,5.93604,-4.06055,-0.16626
603,-7.06035e+36,-0.128372,-0.0129109,9.67542,-0.503576,-0.171334,-6.76221,-4.05835,-0.169434
604,-7.06563e+36,-0.120018,0.0118236,9.6876,-0.623015,-0.267618,1.13086,-4.06812,-0.165771
605,-7.07091e+36,-0.129932,0.0228819,9.66095,-0.65073,-0.175073,4.66406,-4.05078,-0.16626
606,-7.07619e+36,-0.132492,0.00686673,9.66573,-0.679059,-0.230426,7.82324,-4.05957,-0.16748
607,-7.08147e+36,-0.131484,-0.00218162,9.67996,-0.58216,-0.192056,5.40576,-4.05615,-0.163818
608,-7.08675e+36,-0.123737,0.00339774,9.70398,-0.612078,-0.176482,-4.24658,-4.0564,-0.168945
609,-7.09204e+36,-0.124423,0.0112016,9.6788,-0.589025,-0.247818,-0.575195,-4.05591,-0.16333
610,-7.09732e+36,-0.141426,0.0023677,9.7081,-0.549835,-0.148511,6.72192,-4.05981,-0.16748
611,-7.1026e+36,-0.136512,0.0101427,9.69011,-0.671298,-0.216901,-7.65283,-4.05908,-0.168701
612,-7.10788e+36,-0.146569,-0.00405566,9.68781,-0.608953,-0.306551,6.06152,-4.06763,-0.169678
613,-7.11316e+36,-0.14561,-0.0110011,9.69848,-0.503371,-0.173434,-0.307861,-4.05957,-0.17041
614,-7.11844e+36,-0.124381,-0.0018955,9.67287,-0.608031,-0.318487,-3.08936,-4.05884,-0.164795
615,-7.12373e+36,-0.120347,0.0152425,9.71595,-0.62655,-0.243105,-2.3562,-4.05786,-0.17041
616,-7.12901e+36,-0.133887,-0.00265396,9.71167,-0.556828,-0.298764,-4.51196,-4.0542,-0.165771
617,-7.13429e+36,-0.117249,0.00440636,9.71724,-0.535722,-0.235318,3.40747,-4.05273,-0.167236
618,-7.13957e+36,-0.12315,0.00514289,9.68446,-0.627497,-0.247895,0.481201,-4.06104,-0.168213
619,-7.14485e+36,-0.135382,-0.00331177,9.67699,-0.50939,-0.299789,7.62964,-4.06323,-0.164307
620,-7.15013e+36,-0.12574,0.00263928,9.69733,-0.652779,-0.269923,-1.10254,-4.05396,-0.170898
621,-7.15542e+36,-0.125904,0.00462789,9.67734,-0.555419,-0.192696,-2.98389,-4.05933,-0.164795
622,-7.1607e+36,-0.115483,0.0159723,9.66677,-0.609235,-0.263391,-0.464355,-4.0603,-0.166016
623,-7.16598e+36,-0.135053,0.0136476,9.67449,-0.677035,-0.252941,-2.40771,-4.05859,-0.168945
624,-7.17126e+36,-0.109195,0.0286543,9.7078,-0.588026,-0.305578,-4.46094,-4.05298,-0.167236
625,-7.17654e+36,-0.116427,-0.00502845,9.69702,-0.558185,-0.257167,4.87646,-4.05273,-0.167969
626,-7.18182e+36,-0.131748,0.00393406,9.67222,-0.545122,-0.21206,-0.36084,-4.05933,-0.164795
627,-7.18711e+36,-0.141741,-0.000650909,9.69793,-0.501271,-0.284574,0.000732422,-4.05493,-0.168945
628,-7.19239e+36,-0.135453,-0.00524272,9.70677,-0.527807,-0.35299,-1.52393,-4.05249,-0.166748
629,-7.19767e+36,-0.14501,-0.0247417,9.70414,-0.606699,-0.182297,-7.4436,-4.05859,-0.167236
630,-7.20295e+36,-0.135024,-0.00128751,9.70525,-0.560439,-0.110423,4.57397,-4.06201,-0.168457
631,-7.20823e+36,-0.13182,0.00915547,9.70398,-0.539513,-0.205042,6.87256,-4.05469,-0.16626
632,-7.21351e+36,-0.127835,0.00208882,9.68888,-0.553191,-0.23414,3.09814,-4.05664,-0.170898
633,-7.2188e+36,-0.135525,0.0137908,9.68793,-0.635797,-0.248535,-6.56152,-4.05103,-0.164795
634,-7.22408e+36,-0.13491,0.00903404,9.69138,-0.593969,-0.278068,-6.44385,-4.06079,-0.164551
635,-7.22936e+36,-0.13652,-0.0199066,9.69903,-0.560772,-0.219565,-6.13965,-4.05298,-0.166016
636,-7.23464e+36,-0.119174,0.00399824,9.70002,-0.640714,-0.260343,2.57593,-4.05859,-0.165771
637,-7.23992e+36,-0.139159,0.0073816,9.70258,-0.634362,-0.18829,-7.07568,-4.05933,-0.169434
638,-7.2452e+36,-0.132413,0.0168163,9.68833,-0.617841,-0.166621,-3.0188,-4.06372,-0.161865
639,-7.25049e+36,-0.121198,-0.00550054,9.7199,-0.543457,-0.0814276,6.56567,-4.06055,-0.169434
640,-7.25577e+36,-0.138858,0.000772507,9.67669,-0.448915,-0.156093,-4.7998,-4.06616,-0.166748
641,-7.26105e+36,-0.116105,-0.00487109,9.68873,-0.491614,-0.150074,-0.574951,-4.05591,-0.167236
642,-7.26633e+36,-0.134717,-0.00208863,9.67469,-0.57463,-0.0868066,-4.24219,-4.05981,-0.168457
643,-7.27161e+36,-0.130146,0.0126105,9.66446,-0.556162,-0.19723,5.29858,-4.05469,-0.164307
644,-7.27689e+36,-0.14051,0.0136335,9.68682,-0.667507,-0.339798,-0.357178,-4.06226,-0.17041
645,-7.28218e+36,-0.148915,0.0115589,9.69798,-0.665458,-0.238366,-2.83569,-4.05225,-0.162354
646,-7.28746e+36,-0.136312,0.00780375,9.66268,-0.533852,-0.245999,-5.28784,-4.06226,-0.166992
647,-7.29274e+36,-0.138043,0.0186759,9.68174,-0.518688,-0.180324,1.83789,-4.05566,-0.16626
648,-7.29802e+36,-0.127849,0.00695984,9.69006,-0.628983,-0.156119,5.14502,-4.05737,-0.166748
649,-7.3033e+36,-0.0991459,-0.004535,9.70896,-0.512566,-0.137676,7.03638,-4.05981,-0.171387
650,-7.30858e+36,-0.135732,-0.0114875,9.68747,-0.576039,-0.314056,-0.367432,-4.05444,-0.161865
651,-7.31387e+36,-0.138486,-0.0167949,9.6983,-0.568943,-0.25604,1.05249,-4.05688,-0.169434
652,-7.31915e+36,-0.130046,0.00448467,9.70489,-0.648271,-0.249918,5.11377,-4.06519,-0.167236
653,-7.32443e+36,-0.131691,0.00226731,9.69386,-0.617918,-0.189571,3.1543,-4.05933,-0.166748
654,-7.32971e+36,-0.124088,0.000164515,9.68995,-0.611258,-0.208013,-6.50146,-4.05713,-0.168457
655,-7.33499e+36,-0.142013,0.00130182,9.70151,-0.63093,-0.214058,2.17993,-4.06812,-0.165283
656,-7.34027e+36,-0.113451,0.0139266,9.6851,-0.592944,-0.171385,-6.16382,-4.06567,-0.168457
657,-7.34556e+36,-0.129467,0.0164871,9.70587,-0.655622,-0.255809,-0.938965,-4.05859,-0.16333
658,-7.35084e+36,-0.151962,-0.0101642,9.68476,-0.618481,-0.247305,-0.521484,-4.05664,-0.16748
659,-7.35612e+36,-0.142714,0.00268947,9.7092,-0.65867,-0.168951,-0.104248,-4.05518,-0.166016
660,-7.3614e+36,-0.123687,0.0250922,9.70459,-0.657492,-0.15243,-4.66821,-4.05493,-0.166748
661,-7.36668e+36,-0.134195,-0.013283,9.70636,-0.567407,-0.181298,-3.08911,-4.05884,-0.166992
662,-7.37196e+36,-0.126112,0.00703124,9.69823,-0.610105,-0.186881,5.51245,-4.05762,-0.163818
663,-7.37725e+36,-0.144516,0.00447042,9.6784,-0.451809,-0.123179,1.88721,-4.05347,-0.168457
664,-7.38253e+36,-0.123995,0.00753194,9.69648,-0.685719,-0.244462,1.26245,-4.05688,-0.167236
665,-7.38781e+36,-0.1329,0.0158291,9.71743,-0.540691,-0.213904,-3.40747,-4.0564,-0.164795
666,-7.39309e+36,-0.134245,0.00819001,9.70789,-0.572581,-0.203838,4.51099,-4.05396,-0.166992
667,-7.39837e+36,-0.127721,0.0166733,9.68078,-0.586566,-0.236727,0.156006,-4.05322,-0.164795
668,-7.40365e+36,-0.11707,0.00562222,9.70745,-0.65639,-0.202609,-0.473633,-4.05347,-0.16748
669,-7.40894e+36,-0.116476,0.021101,9.67906,-0.554753,-0.164623,4.62231,-4.05884,-0.164307
670,-7.41422e+36,-0.151876,0.0112657,9.70508,-0.577857,-0.167978,4.6731,-4.05762,-0.167969
671,-7.4195e+36,-0.131348,0.00320447,9.69132,-0.762689,-0.195539,6.92725,-4.0564,-0.169189
672,-7.42478e+36,-0.128694,-0.00701694,9.69257,-0.77063,-0.247792,4.93726,-4.05884,-0.166748
673,-7.43006e+36,-0.127492,0.011745,9.69922,-0.566484,-0.279323,-7.9165,-4.05786,-0.167969
674,-7.43534e+36,-0.121763,0.0131827,9.6974,-0.641765,-0.290952,4.9873,-4.05713,-0.165283
675,-7.44063e+36,-0.122736,-0.00789674,9.66505,-0.548631,-0.247766,2.99976,-4.06152,-0.171875
676,-7.44591e+36,-0.141133,-0.00381262,9.65847,-0.539282,-0.198024,-5.76611,-4.05762,-0.164307
677,-7.45119e+36,-0.130203,0.0141698,9.69235,-0.578446,-0.237188,-6.44287,-4.06177,-0.165771
678,-7.45647e+36,-0.131126,0.000793966,9.68613,-0.57965,-0.187573,-7.08276,-4.05396,-0.166992
679,-7.46175e+36,-0.121033,0.00356226,9.72647,-0.570941,-0.183936,-7.44531,-4.05713,-0.164795
680,-7.46703e+36,-0.135346,-0.0045206,9.71174,-0.590434,-0.13824,1.052,-4.0564,-0.168945
681,-7.47232e+36,-0.151211,0.00199564,9.6667,-0.63321,-0.322995,1.91089,-4.06299,-0.16333
682,-7.4776e+36,-0.123279,0.0119953,9.69419,-0.531521,-0.271972,-6.54761,-4.06177,-0.166016
683,-7.48288e+36,-0.141247,0.00718145,9.6834,-0.667942,-0.275071,5.72583,-4.06006,-0.16748
684,-7.48816e+36,-0.127557,-0.00686673,9.66945,-0.585157,-0.181118,-3.71606,-4.06079,-0.16626
685,-7.49344e+36,-0.126155,-0.010436,9.71513,-0.567202,-0.229299,2.04395,-4.05273,-0.168457
686,-7.49872e+36,-0.127664,0.0167664,9.70586,-0.52002,-0.164443,4.04761,-4.06055,-0.165283
687,-7.50401e+36,-0.138872,0.0197061,9.69536,-0.608082,-0.225533,-6.27319,-4.06323,-0.168945
688,-7.50929e+36,-0.133701,-0.00273239,9.69211,-0.547427,-0.249739,2.20898,-4.05884,-0.167725
689,-7.51457e+36,-0.12501,0.0131112,9.69841,-0.577114,-0.213571,-1.9165,-4.06494,-0.165771
690,-7.51985e+36,-0.133658,0.0113086,9.70593,-0.550245,-0.19974,-2.2998,-4.06055,-0.169922
691,-7.52513e+36,-0.126155,0.00325454,9.68145,-0.604547,-0.222152,-7.76147,-4.05615,-0.164795
692,-7.53041e+36,-0.111992,-0.0040987,9.71008,-0.558621,-0.179658,4.36499,-4.0625,-0.168457
693,-7.5357e+36,-0.128472,0.00271093,9.72013,-0.590203,-0.315644,1.57739,-4.05688,-0.164307
694,-7.54098e+36,-0.124767,-0.0064161,9.67919,-0.562719,-0.307832,-1.78149,-4.05615,-0.166016
695,-7.54626e+36,-0.145875,-1.44113e-05,9.72055,-0.693633,-0.293898,6.98438,-4.06006,-0.165771
696,-7.55154e+36,-0.13006,-0.000679282,9.67064,-0.582391,-0.272382,0.0505371,-4.05273,-0.165771
697,-7.55682e+36,-0.121777,0.0193198,9.66803,-0.542894,-0.217337,0.156006,-4.05322,-0.166992
698,-7.5621e+36,-0.129195,-0.013712,9.64792,-0.644966,-0.212598,-6.91577,-4.06104,-0.163818
699,-7.56739e+36,-0.122857,-0.00147349,9.70729,-0.597196,-0.265056,1.94019,-4.05371,-0.169922
700,-7.57267e+36,-0.120554,-0.00404136,9.70715,-0.594942,-0.181707,-5.70898,-4.06128,-0.16626
701,-7.57795e+36,-0.119023,-0.00504275,9.68141,-0.550527,-0.241209,-0.200684,-4.06152,-0.168701
702,-7.58323e+36,-0.128236,-0.0286972,9.68576,-0.594506,-0.188931,3.84033,-4.0625,-0.168213
703,-7.58851e+36,-0.1329,1.41562e-05,9.7079,-0.565332,-0.227711,3.90479,-4.06348,-0.162842
704,-7.59379e+36,-0.123472,-0.00962057,9.68143,-0.63198,-0.19577,3.30469,-4.0542,-0.168945
705,-7.59908e+36,-0.119159,0.0105433,9.67162,-0.697219,-0.219207,-5.91895,-4.06128,-0.16333
706,-7.60436e+36,-0.130368,-0.00681666,9.68742,-0.668403,-0.245026,2.37085,-4.06201,-0.168945
707,-7.60964e+36,-0.130704,0.0142556,9.71634,-0.589845,-0.201866,3.521,-4.05908,-0.166992
708,-7.61492e+36,-0.131977,-0.00301135,9.68417,-0.6255,-0.21206,-7.45337,-4.05127,-0.167236
709,-7.6202e+36,-0.122965,0.00394122,9.68444,-0.611335,-0.236496,5.51758,-4.06152,-0.170898
710,-7.62548e+36,-0.129523,-0.00465627,9.68413,-0.590587,-0.296382,-6.34302,-4.05786,-0.16626
711,-7.63077e+36,-0.124903,-0.00973517,9.69662,-0.613973,-0.323482,5.97656,-4.05151,-0.171875
712,-7.63605e+36,-0.113687,-0.00791104,9.69283,-0.558518,-0.30983,4.83423,-4.0603,-0.166748
713,-7.64133e+36,-0.136126,0.00479937,9.69061,-0.545839,-0.252659,-4.66357,-4.05835,-0.162842
714,-7.64661e+36,-0.137707,0.0198706,9.72836,-0.58029,-0.238443,3.83765,-4.06055,-0.167969
715,-7.65189e+36,-0.129703,-0.0111799,9.66205,-0.612769,-0.130248,-3.1897,-4.06226,-0.165283
716,-7.65717e+36,-0.13629,0.00950613,9.66357,-0.538462,-0.271767,-1.9978,-4.05127,-0.167969
717,-7.66246e+36,-0.149037,-0.00356212,9.69986,-0.668813,-0.251737,-3.1416,-4.05908,-0.163818
718,-7.66774e+36,-0.124896,-0.00625874,9.69178,-0.540665,-0.250687,6.9209,-4.05151,-0.166992
719,-7.67302e+36,-0.117936,0.00446337,9.69051,-0.664049,-0.177942,-2.677,-4.05298,-0.166748
720,-7.6783e+36,-0.123673,0.00910557,9.68368,-0.554164,-0.207603,-4.56128,-4.0564,-0.166748
721,-7.68358e+36,-0.135396,-0.00215281,9.69251,-0.593636,-0.280297,-3.76733,-4.06152,-0.169922
722,-7.68886e+36,-0.131505,0.0116804,9.72456,-0.543867,-0.199202,6.40723,-4.05981,-0.164795
723,-7.69415e+36,-0.124367,0.00931999,9.69858,-0.608005,-0.214417,7.97681,-4.05688,-0.171875
724,-7.69943e+36,-0.121398,0.012582,9.66574,-0.594711,-0.260983,1.89453,-4.05884,-0.16626
725,-7.70471e+36,-0.131684,0.0150281,9.69011,-0.651985,-0.267566,6.51074,-4.05884,-0.165771
726,-7.70999e+36,-0.143293,0.000436323,9.69139,-0.534441,-0.294205,-7.65137,-4.06006,-0.167969
727,-7.71527e+36,-0.115118,-0.00105872,9.69979,-0.606058,-0.208116,-0.109619,-4.05127,-0.164795
728,-7.72055e+36,-0.131298,0.000243197,9.70772,-0.629367,-0.250866,-3.03564,-4.05957,-0.168457
729,-7.72584e+36,-0.118544,0.00266086,9.69658,-0.587719,-0.19162,1.73218,-4.05518,-0.163818
730,-7.73112e+36,-0.123673,0.00283968,9.70413,-0.629393,-0.156247,4.51538,-4.05737,-0.166992
731,-7.7364e+36,-0.128952,-0.0215731,9.72114,-0.515205,-0.207911,-5.65479,-4.0625,-0.16748
732,-7.74168e+36,-0.135639,-0.00971356,9.69094,-0.63846,-0.232193,-3.51025,-4.05786,-0.168213
733,-7.74696e+36,-0.132099,0.0232466,9.68201,-0.685411,-0.264057,-3.61719,-4.0564,-0.166992
734,-7.75224e+36,-0.125096,0.00424879,9.68252,-0.695196,-0.199637,7.82104,-4.05811,-0.165771
735,-7.75753e+36,-0.127457,0.00374809,9.72852,-0.701446,-0.27753,1.57617,-4.05591,-0.17041
736,-7.76281e+36,-0.134924,-0.00264655,9.69167,-0.714458,-0.303503,-5.02734,-4.06104,-0.165771
737,-7.76809e+36,-0.120353,0.00930595,9.70314,-0.602805,-0.148793,1.89648,-4.0603,-0.16626
738,-7.77337e+36,-0.123036,-0.00137335,9.70994,-0.615356,-0.0909049,5.40503,-4.05566,-0.166504
739,-7.77865e+36,-0.136512,0.000429171,9.68477,-0.667584,-0.228044,-1.61792,-4.06079,-0.164795
740,-7.78393e+36,-0.127707,0.00781806,9.67775,-0.519482,-0.163111,-7.05493,-4.06641,-0.167969
741,-7.78922e+36,-0.145296,0.003276,9.69084,-0.614434,-0.246921,2.46338,-4.05273,-0.163818
742,-7.7945e+36,-0.13574,0.00748903,9.70561,-0.498581,-0.23834,-2.72192,-4.05908,-0.166992
743,-7.79978e+36,-0.109703,-0.00125898,9.68421,-0.714509,-0.207347,-4.61035,-4.05908,-0.167236
744,-7.80506e+36,-0.112407,-0.0102786,9.69112,-0.591279,-0.274969,-4.50708,-4.05762,-0.16626
745,-7.81034e+36,-0.128386,-0.00920571,9.7027,-0.619275,-0.20476,-5.92065,-4.05981,-0.168945
746,-7.81562e+36,-0.135782,-0.0143556,9.67694,-0.573298,-0.211036,-6.13208,-4.05884,-0.163818
747,-7.82091e+36,-0.148042,0.00660923,9.66953,-0.605188,-0.183014,7.87598,-4.05981,-0.167969
748,-7.82619e+36,-0.124166,-0.00156647,9.71797,-0.612308,-0.217644,-3.82251,-4.05981,-0.167236
749,-7.83147e+36,-0.113287,-0.00859772,9.6824,-0.563923,-0.262162,1.10474,-4.05664,-0.164307
750,-7.83675e+36,-0.12594,0.00123744,9.70365,-0.7235,-0.201149,-2.93555,-4.05615,-0.166992
751,-7.84203e+36,-0.131033,-0.00195988,9.70365,-0.572632,-0.241465,5.56445,-4.05737,-0.164795
752,-7.84731e+36,-0.137134,0.00694541,9.6898,-0.519508,-0.250533,7.2981,-4.05908,-0.167969
753,-7.8526e+36,-0.137377,0.0122673,9.68104,-0.546736,-0.211061,-0.201904,-4.06055,-0.164307
754,-7.85788e+36,-0.126004,0.0103716,9.68067,-0.517075,-0.213572,-2.56201,-4.06079,-0.167969
755,-7.86316e+36,-0.133364,0.0162156,9.68499,-0.688792,-0.14531,-1.88379,-4.05811,-0.166748
756,-7.86844e+36,-0.121763,-0.00664477,9.71994,-0.504831,-0.364926,-2.12207,-4.06787,-0.165771
757,-7.87372e+36,-0.105591,-0.00134484,9.69972,-0.609439,-0.218771,-0.740723,-4.0498,-0.168945
758,-7.879e+36,-0.115461,-0.0141054,9.70289,-0.599834,-0.313211,-1.04419,-4.05811,-0.162354
759,-7.88429e+36,-0.123108,-0.0104432,9.68323,-0.560055,-0.157015,6.72168,-4.05981,-0.169922
760,-7.88957e+36,-0.135353,-0.00974932,9.70388,-0.541382,-0.217106,-3.46362,-4.05371,-0.165771
761,-7.89485e+36,-0.12823,-0.00422034,9.69859,-0.637564,-0.209396,-3.87695,-4.05811,-0.165771
762,-7.90013e+36,-0.13026,0.000593686,9.69354,-0.661027,-0.274943,5.13965,-4.05347,-0.16748
763,-7.90541e+36,-0.12559,-0.00936307,9.69466,-0.68367,-0.305655,1.97314,-4.07007,-0.16333
764,-7.91069e+36,-0.142914,-0.0127249,9.71337,-0.593559,-0.224022,2.46509,-4.0542,-0.166504
765,-7.91598e+36,-0.11903,0.0145703,9.69989,-0.683823,-0.181221,0.21875,-4.06079,-0.16333
766,-7.92126e+36,-0.144258,-0.016015,9.70598,-0.680929,-0.25084,1.7334,-4.05615,-0.164551
767,-7.92654e+36,-0.143221,-0.00483521,9.69026,-0.533493,-0.158578,-5.70898,-4.06128,-0.168457
768,-7.93182e+36,-0.132971,-0.0164301,9.69659,-0.497326,-0.228248,0.373047,-4.05859,-0.165283
769,-7.9371e+36,-0.145918,0.0124173,9.68243,-0.635412,-0.184884,-2.49121,-4.06616,-0.17041
770,-7.94238e+36,-0.125582,0.0144058,9.68574,-0.568252,-0.243207,7.55493,-4.05493,-0.163818
771,-7.94767e+36,-0.121662,0.0109154,9.67445,-0.587847,-0.266106,4.46631,-4.05957,-0.168945
772,-7.95295e+36,-0.131312,0.00557922,9.70381,-0.555701,-0.170847,-6.13647,-4.05542,-0.167236
773,-7.95823e+36,-0.121749,-0.0059011,9.68079,-0.655161,-0.198997,-5.7605,-4.06201,-0.16333
774,-7.96351e+36,-0.144601,0.0116522,9.68454,-0.579932,-0.253017,1.42407,-4.06006,-0.17041
775,-7.96879e+36,-0.13466,0.00571503,9.6876,-0.669863,-0.238878,-1.78149,-4.05615,-0.164307
776,-7.97407e+36,-0.130776,0.00524294,9.68387,-0.626345,-0.157066,6.00854,-4.06738,-0.166504
777,-7.97936e+36,-0.13526,0.00213155,9.71139,-0.553549,-0.233448,3.77881,-4.05591,-0.161865
778,-7.98464e+36,-0.120854,0.00511428,9.69657,-0.614332,-0.260317,-0.203125,-4.05957,-0.166992
779,-7.98992e+36,-0.127034,0.0172598,9.68846,-0.567381,-0.185908,5.08594,-4.05225,-0.166992
780,-7.9952e+36,-0.121734,-0.00360493,9.69062,-0.726701,-0.255809,-3.98389,-4.05664,-0.165283
781,-8.00048e+36,-0.128229,0.0198922,9.70168,-0.602191,-0.264518,-0.199951,-4.06201,-0.16748
782,-8.00576e+36,-0.147263,0.00217446,9.68825,-0.597657,-0.223254,1.31714,-4.05859,-0.164307
783,-8.01105e+36,-0.128558,-0.00703113,9.66695,-0.715662,-0.294564,-2.9353,-4.05615,-0.168457
784,-8.01633e+36,-0.121162,-0.0220737,9.68966,-0.627267,-0.245154,-1.88794,-4.05518,-0.166748
785,-8.02161e+36,-0.131448,0.0031401,9.70094,-0.559645,-0.26503,-6.66333,-4.05347,-0.167725
786,-8.02689e+36,-0.142677,0.0046852,9.68308,-0.624475,-0.193003,-5.30005,-4.05298,-0.168945
787,-8.03217e+36,-0.12815,-0.00346198,9.72073,-0.540793,-0.173869,-6.45044,-4.05591,-0.16333
788,-8.03745e+36,-0.128951,0.00286829,9.69739,-0.673834,-0.174074,7.31494,-4.06372,-0.169434
789,-8.04274e+36,-0.149737,-0.0263223,9.66117,-0.607467,-0.193413,-1.60181,-4.06445,-0.163818
790,-8.04802e+36,-0.148565,-0.00174529,9.69228,-0.595659,-0.145079,-0.730957,-4.05713,-0.16748
791,-8.0533e+36,-0.142814,-0.0176389,9.7278,-0.62199,-0.145745,-7.13135,-4.05664,-0.166748
792,-8.05858e+36,-0.133107,-0.00509981,9.70275,-0.50478,-0.237803,4.625,-4.06079,-0.165283
793,-8.06386e+36,-0.137142,-0.00128048,9.68667,-0.578293,-0.139931,-5.875,-4.05469,-0.169434
794,-8.06914e+36,-0.144559,-0.00340475,9.67211,-0.605623,-0.324097,-3.77026,-4.05957,-0.163818
795,-8.07443e+36,-0.125375,-0.0149065,9.65798,-0.606289,-0.198305,-5.02783,-4.06055,-0.169434
796,-8.07971e+36,-0.144323,-0.0145846,9.70086,-0.65493,-0.187675,-4.74585,-4.06738,-0.167725
797,-8.08499e+36,-0.149717,0.00594388,9.67865,-0.556418,-0.202788,5.0061,-4.06274,-0.166748
798,-8.09027e+36,-0.119974,0.00505004,9.68146,-0.611565,-0.163496,5.19653,-4.05664,-0.166992
799,-8.09555e+36,-0.119102,0.00264655,9.70337,-0.641047,-0.160909,2.59863,-4.06714,-0.165771
800,-8.10083e+36,-0.127342,0.00861918,9.67656,-0.581033,-0.250379,6.71606,-4.05542,-0.168945
801,-8.10612e+36,-0.124552,0.00337614,9.68903,-0.599604,-0.157246,-3.25537,-4.05225,-0.163818
802,-8.1114e+36,-0.125782,0.00149515,9.70187,-0.624731,-0.26229,2.83569,-4.0564,-0.165527
803,-8.11668e+36,-0.127556,0.00738897,9.70792,-0.635361,-0.0979744,1.68018,-4.05542,-0.16748
804,-8.12196e+36,-0.1178,0.00594401,9.72413,-0.597478,-0.259908,-3.9353,-4.05396,-0.16626
805,-8.12724e+36,-0.126634,3.56851e-05,9.70935,-0.675934,-0.179786,-5.77271,-4.05273,-0.168945
806,-8.13252e+36,-0.128443,-0.00511411,9.68893,-0.592278,-0.209678,-2.35962,-4.05542,-0.164307
807,-8.13781e+36,-0.131083,0.0195773,9.71469,-0.595505,-0.141134,3.10083,-4.05859,-0.171387
808,-8.14309e+36,-0.142191,-0.00714569,9.70586,-0.647016,-0.177404,-3.15332,-4.05029,-0.165771
809,-8.14837e+36,-0.135754,-0.000307572,9.68052,-0.546659,-0.187855,4.04272,-4.05713,-0.168701
810,-8.15365e+36,-0.146233,-0.00235329,9.6881,-0.585208,-0.274303,3.63037,-4.0625,-0.168457
811,-8.15893e+36,-0.128065,0.0099136,9.70136,-0.630955,-0.314056,-6.396,-4.05762,-0.165771
812,-8.16421e+36,-0.113158,0.00272503,9.67478,-0.413158,-0.283422,-0.0976562,-4.06006,-0.170898
813,-8.1695e+36,-0.134566,-0.00575786,9.66202,-0.638102,-0.238008,6.56372,-4.05908,-0.162354
814,-8.17478e+36,-0.119617,0.000464935,9.67861,-0.6109,-0.268181,3.2583,-4.05884,-0.167969
815,-8.18006e+36,-0.113229,0.000228991,9.70054,-0.694786,-0.240799,-1.83545,-4.05493,-0.16748
816,-8.18534e+36,-0.113423,-0.00713138,9.66152,-0.622938,-0.299815,0.425781,-4.05884,-0.165283
817,-8.19062e+36,-0.131677,0.000872647,9.67375,-0.597452,-0.274456,0.793213,-4.05908,-0.168945
818,-8.1959e+36,-0.104839,-0.000307572,9.70232,-0.47809,-0.15389,-1.78467,-4.05371,-0.164795
819,-8.20119e+36,-0.115869,0.000464935,9.69725,-0.603062,-0.238904,-4.61694,-4.0542,-0.169922
820,-8.20647e+36,-0.130675,0.00445622,9.69255,-0.534313,-0.170616,1.15649,-4.0564,-0.16626
821,-8.21175e+36,-0.140468,-0.0176318,9.67297,-0.578523,-0.117134,6.08984,-4.05786,-0.165283
822,-8.21703e+36,-0.134181,0.00170215,9.67974,-0.58006,-0.25335,-1.26245,-4.05225,-0.166992
823,-8.22231e+36,-0.13619,0.0127179,9.69168,-0.651857,-0.19933,6.30566,-4.06226,-0.164795
824,-8.22759e+36,-0.130954,-0.00787528,9.68829,-0.639613,-0.21352,-0.889404,-4.0564,-0.170898
825,-8.23288e+36,-0.128315,-0.017503,9.68392,-0.618123,-0.15202,-7.5481,-4.05908,-0.161377
826,-8.23816e+36,-0.127478,-0.0213872,9.70021,-0.543662,-0.33091,6.79053,-4.06421,-0.166016
827,-8.24344e+36,-0.133386,0.0038983,9.66556,-0.586771,-0.261752,4.56812,-4.05762,-0.16748
828,-8.24872e+36,-0.128107,-0.00269662,9.69807,-0.575987,-0.21603,5.62256,-4.06152,-0.165771
829,-8.254e+36,-0.123459,-0.0156219,9.69155,-0.614127,-0.159577,-6.07666,-4.06104,-0.166992
830,-8.25928e+36,-0.109102,0.0191339,9.69553,-0.584671,-0.23227,-5.82935,-4.04956,-0.165771
831,-8.26457e+36,-0.123365,0.0141626,9.68833,-0.557904,-0.226046,6.14526,-4.06006,-0.169678
832,-8.26985e+36,-0.141741,-0.00354781,9.70054,-0.631775,-0.314568,5.30713,-4.06104,-0.165771
833,-8.27513e+36,-0.136805,-0.00322593,9.66376,-0.645171,-0.302274,-5.49854,-4.06177,-0.16626
834,-8.28041e+36,-0.120654,0.0154573,9.68676,-0.529805,-0.291234,4.04443,-4.05811,-0.168701
835,-8.28569e+36,-0.116356,0.0128678,9.69019,-0.539692,-0.212265,-0.606934,-4.06323,-0.164795
836,-8.29097e+36,-0.149881,-0.00311149,9.69012,-0.575168,-0.205016,3.62671,-4.05957,-0.168457
837,-8.29626e+36,-0.145646,0.00020028,9.71235,-0.538719,-0.231758,1.89185,-4.05688,-0.164307
838,-8.30154e+36,-0.12619,-0.0226531,9.68075,-0.652599,-0.282423,-3.24365,-4.06104,-0.166016
839,-8.30682e+36,-0.129738,0.0117807,9.69633,-0.599629,-0.166185,4.78003,-4.05908,-0.169189
840,-8.3121e+36,-0.127707,-0.0116019,9.70381,-0.573195,-0.282474,-0.00683594,-4.04932,-0.164307
841,-8.31738e+36,-0.148236,0.0200065,9.69398,-0.645376,-0.149229,1.5752,-4.05542,-0.168945
842,-8.32266e+36,-0.120633,0.0134044,9.67252,-0.608927,-0.153429,7.87134,-4.0564,-0.165771
843,-8.32795e+36,-0.126412,-0.00477818,9.67695,-0.703264,-0.210549,7.0874,-4.05859,-0.169922
844,-8.33323e+36,-0.127006,-0.0111656,9.69863,-0.590972,-0.342078,6.52661,-4.06299,-0.165771
845,-8.33851e+36,-0.126598,0.00781798,9.67988,-0.679853,-0.194873,-6.92285,-4.05566,-0.167236
846,-8.34379e+36,-0.116441,-0.0184686,9.70711,-0.505881,-0.229196,2.10254,-4.05737,-0.16748
847,-8.34907e+36,-0.116548,0.00907696,9.69819,-0.626268,-0.33675,-3.34985,-4.06006,-0.166748
848,-8.35435e+36,-0.131305,0.00861918,9.6785,-0.63846,-0.208884,1.89917,-4.06226,-0.165527
849,-8.35964e+36,-0.134287,0.00198148,9.67817,-0.630853,-0.20266,3.52344,-4.06055,-0.16333
850,-8.36492e+36,-0.112621,-0.00509977,9.70644,-0.56797,-0.228018,-0.0556641,-4.052,-0.166016
851,-8.3702e+36,-0.132621,-0.00527165,9.70346,-0.621734,-0.294154,1.10596,-4.05762,-0.167725
852,-8.37548e+36,-0.130447,-0.004342,9.70538,-0.60091,-0.25832,-3.62061,-4.05396,-0.16626
853,-8.38076e+36,-0.12104,0.0213586,9.7034,-0.577089,-0.334957,-0.62207,-4.06006,-0.166504
854,-8.38604e+36,-0.106498,-0.00436308,9.6809,-0.534287,-0.284292,0.456543,-4.07373,-0.165283
855,-8.39133e+36,-0.13639,0.00747472,9.68097,-0.603292,-0.165007,-3.43408,-4.06763,-0.167969
856,-8.39661e+36,-0.122442,0.00381247,9.70604,-0.68034,-0.0703879,-6.55176,-4.05884,-0.167725
857,-8.40189e+36,-0.14267,0.00348352,9.70307,-0.647323,-0.10133,-7.18628,-4.05493,-0.167236
858,-8.40717e+36,-0.127356,-0.00381247,9.70394,-0.608031,-0.20015,-4.6084,-4.06055,-0.165527
859,-8.41245e+36,-0.138615,-0.00256072,9.68978,-0.543841,-0.242849,4.99292,-4.06152,-0.163818
860,-8.41773e+36,-0.124466,-0.0169736,9.68832,-0.623681,-0.136114,-5.65869,-4.05957,-0.168457
861,-8.42302e+36,-0.128129,0.0140911,9.70004,-0.57673,-0.276941,-0.574463,-4.0564,-0.164795
862,-8.4283e+36,-0.128666,-0.00565814,9.68211,-0.570992,-0.276173,-5.03833,-4.05273,-0.165039
863,-8.43358e+36,-0.132986,-0.0102143,9.7022,-0.579394,-0.259498,5.66553,-4.05444,-0.166016
864,-8.43886e+36,-0.13094,-0.0135761,9.68909,-0.631007,-0.165519,6.82568,-4.05884,-0.165283
865,-8.44414e+36,-0.152771,-0.00512161,9.71439,-0.58759,-0.212342,0.367676,-4.05469,-0.166016
866,-8.44942e+36,-0.143522,0.0297773,9.66537,-0.547889,-0.135884,0.743164,-4.06079,-0.164307
867,-8.45471e+36,-0.137184,-0.0084189,9.65499,-0.663332,-0.282166,-3.87866,-4.05713,-0.169922
868,-8.45999e+36,-0.139967,-0.00469226,9.68669,-0.556777,-0.186472,3.41382,-4.05713,-0.16626
869,-8.46527e+36,-0.150997,0.00057195,9.69302,-0.48311,-0.38762,-3.82202,-4.0603,-0.168213
870,-8.47055e+36,-0.120354,-0.00159515,9.71584,-0.649065,-0.157809,6.45093,-4.05322,-0.165527
871,-8.47583e+36,-0.141755,0.00872647,9.69351,-0.579471,-0.220974,7.1853,-4.05322,-0.164795
872,-8.48111e+36,-0.139931,-0.00932731,9.70317,-0.481778,-0.345946,5.60889,-4.05127,-0.171387
873,-8.4864e+36,-0.119488,0.00530026,9.66696,-0.657031,-0.232577,-0.46875,-4.05688,-0.164307
874,-8.49168e+36,-0.133508,-0.0184116,9.68591,-0.596888,-0.242003,1.63306,-4.05957,-0.16748
875,-8.49696e+36,-0.132828,-0.0109723,9.72143,-0.627984,-0.161933,1.26465,-4.05835,-0.166748
876,-8.50224e+36,-0.127414,0.00728159,9.69334,-0.656851,-0.230887,2.91235,-4.06665,-0.166748
877,-8.50752e+36,-0.128408,0.0245629,9.69477,-0.629419,-0.273201,0.12793,-4.06348,-0.167969
878,-8.5128e+36,-0.102557,0.00469226,9.70169,-0.609081,-0.199356,-7.81372,-4.0564,-0.16333
879,-8.51809e+36,-0.133264,-0.00311129,9.69114,-0.542228,-0.235881,3.62158,-4.05566,-0.169434
880,-8.52337e+36,-0.136555,0.0228748,9.69883,-0.534646,-0.196743,-0.150879,-4.05933,-0.16626
881,-8.52865e+36,-0.126784,0.0128537,9.68495,-0.52002,-0.24021,2.68091,-4.05859,-0.166748
882,-8.53393e+36,-0.126949,-0.00623728,9.68357,-0.46559,-0.233013,0.8479,-4.06079,-0.167236
883,-8.53921e+36,-0.130325,0.00052931,9.70264,-0.537489,-0.269718,-0.635498,-4.0498,-0.167236
884,-8.54449e+36,-0.144437,0.0148995,9.68408,-0.623681,-0.206348,5.82495,-4.05615,-0.166992
885,-8.54978e+36,-0.125997,0.012589,9.67234,-0.633081,-0.160448,7.45435,-4.05835,-0.164795
886,-8.55506e+36,-0.131498,-0.0151855,9.6576,-0.564922,-0.176585,-5.18677,-4.05933,-0.16748
887,-8.56034e+36,-0.125003,-0.015872,9.68497,-0.648885,-0.268079,7.75952,-4.05103,-0.168945
888,-8.56562e+36,-0.119438,0.0113444,9.68331,-0.564102,-0.119772,-2.46118,-4.05786,-0.16626
889,-8.5709e+36,-0.129724,0.0130468,9.71141,-0.638512,-0.212701,6.71582,-4.05493,-0.167969
890,-8.57618e+36,-0.150847,0.0152711,9.67562,-0.58526,-0.220129,-4.66577,-4.05688,-0.16626
891,-8.58147e+36,-0.131305,0.0120096,9.70052,-0.622067,-0.281372,-4.50659,-4.05811,-0.167969
892,-8.58675e+36,-0.124867,-0.00635878,9.67141,-0.606135,-0.223996,5.92358,-4.05127,-0.165283
893,-8.59203e+36,-0.113881,-0.00121614,9.6752,-0.530445,-0.194924,-1.15137,-4.05664,-0.167725
894,-8.59731e+36,-0.149072,0.0107939,9.69024,-0.616765,-0.269257,1.10229,-4.05469,-0.167969
895,-8.60259e+36,-0.131183,0.00258933,9.70563,-0.62532,-0.187061,-7.07568,-4.05933,-0.164795
896,-8.60787e+36,-0.127278,-0.00402705,9.68853,-0.627395,-0.245359,1.83716,-4.05518,-0.168457
897,-8.61316e+36,-0.111377,-0.0105576,9.70411,-0.572632,-0.216466,-2.03564,-4.06226,-0.16333
898,-8.61844e+36,-0.114124,0.000414716,9.69228,-0.614152,-0.190339,-6.02905,-4.05737,-0.165039
899,-8.62372e+36,-0.134072,-0.000178619,9.69298,-0.543227,-0.274328,-7.91504,-4.05933,-0.167725
900,-8.629e+36,-0.11863,-0.0114373,9.67696,-0.551398,-0.191518,-7.89209,-4.06836,-0.163818
901,-8.63428e+36,-0.142714,0.00398413,9.70477,-0.565357,-0.272715,-2.12744,-4.06396,-0.168945
902,-8.63956e+36,-0.112414,-0.00829002,9.69184,-0.647272,-0.289902,6.81982,-4.05444,-0.16333
903,-8.64485e+36,-0.121935,0.00700263,9.71,-0.562489,-0.233807,-4.66968,-4.05396,-0.168945
904,-8.65013e+36,-0.124002,0.0028969,9.68042,-0.515999,-0.186267,1,-4.05664,-0.16626
905,-8.65541e+36,-0.15051,0.016573,9.68245,-0.578292,-0.220334,-7.15869,-4.06787,-0.166748
906,-8.66069e+36,-0.120919,-0.024055,9.70039,-0.577319,-0.181067,1.20801,-4.05518,-0.168945
907,-8.66597e+36,-0.12604,-0.00609422,9.69104,-0.568585,-0.228607,-1.02539,-4.06421,-0.163818
908,-8.67125e+36,-0.126785,0.0045848,9.68463,-0.553088,-0.213059,-5.40161,-4.05542,-0.16748
909,-8.67654e+36,-0.142292,0.0175316,9.68257,-0.545814,-0.294,1.94727,-4.05908,-0.164795
910,-8.68182e+36,-0.122721,0.0100068,9.69243,-0.605623,-0.14531,-6.1311,-4.05933,-0.166992
911,-8.6871e+36,-0.128644,-0.00919879,9.68568,-0.569891,-0.289236,-7.39551,-4.05542,-0.167236
912,-8.69238e+36,-0.128079,-0.00584387,9.70255,-0.636411,-0.202019,5.56665,-4.05884,-0.164795
913,-8.69766e+36,-0.139015,-0.0203999,9.7239,-0.627395,-0.152533,6.08838,-4.0564,-0.167969
914,-8.70294e+36,-0.131226,-0.00195988,9.71966,-0.548503,-0.20371,7.70386,-4.04883,-0.160889
915,-8.70823e+36,-0.129016,0.00757468,9.68551,-0.500733,-0.232603,-1.93579,-4.05835,-0.168457
916,-8.71351e+36,-0.132642,0.00728875,9.67649,-0.583287,-0.0620633,-1.93848,-4.0564,-0.165283
917,-8.71879e+36,-0.14076,-0.00240319,9.6871,-0.580521,-0.212163,2.20728,-4.05737,-0.168213
918,-8.72407e+36,-0.130876,-0.0140911,9.67119,-0.612769,-0.279221,-2.54834,-4.06299,-0.166504
919,-8.72935e+36,-0.136248,-0.00271826,9.69627,-0.502295,-0.23291,3.10059,-4.05859,-0.165771
920,-8.73463e+36,-0.128751,-0.00258218,9.69243,-0.60196,-0.208244,-4.03467,-4.05786,-0.168945
921,-8.73992e+36,-0.130489,-9.2987e-05,9.6946,-0.587693,-0.188623,-2.77466,-4.05884,-0.163818
922,-8.7452e+36,-0.134824,-0.00937022,9.70328,-0.658798,-0.219207,4.56934,-4.05859,-0.166504
923,-8.75048e+36,-0.129431,0.011888,9.68468,-0.565767,-0.3263,4.88574,-4.05957,-0.167969
924,-8.75576e+36,-0.120919,0.0098921,9.70637,-0.577037,-0.352606,2.20581,-4.0564,-0.16626
925,-8.76104e+36,-0.12584,0.00253211,9.69132,-0.59612,-0.309061,-7.5481,-4.05908,-0.167969
926,-8.76632e+36,-0.13639,-0.00206717,9.68222,-0.494432,-0.245205,-2.88379,-4.05542,-0.166748
927,-8.77161e+36,-0.125446,0.00934174,9.70122,-0.505907,-0.160396,-1.88696,-4.05566,-0.169922
928,-8.77689e+36,-0.125661,0.00963508,9.68845,-0.609516,-0.242977,-6.39868,-4.05518,-0.167725
929,-8.78217e+36,-0.116577,-0.00746757,9.69236,-0.597811,-0.254375,-5.70972,-4.06079,-0.168701
930,-8.78745e+36,-0.133558,-0.00297558,9.67869,-0.611437,-0.274585,6.34912,-4.05566,-0.168213
931,-8.79273e+36,-0.115311,-0.00153071,9.66723,-0.648322,-0.18975,7.77051,-4.05933,-0.166748
932,-8.79801e+36,-0.131648,-0.0211438,9.67733,-0.565844,-0.152533,7.71875,-4.06006,-0.169922
933,-8.8033e+36,-0.119124,-0.0109225,9.68883,-0.538181,-0.177763,-6.08447,-4.05518,-0.16333
934,-8.80858e+36,-0.127013,-0.00133758,9.68994,-0.626114,-0.131632,-3.04541,-4.05225,-0.16748
935,-8.81386e+36,-0.126019,-0.0189693,9.73636,-0.610336,-0.190877,0.575439,-4.05322,-0.168457
936,-8.81914e+36,-0.142063,0.0083116,9.69325,-0.560158,-0.278145,7.1897,-4.05664,-0.169189
937,-8.82442e+36,-0.121605,-0.00722437,9.71159,-0.654264,-0.0933639,1.8396,-4.05713,-0.171387
938,-8.8297e+36,-0.123208,-0.0114946,9.70586,-0.680954,-0.157732,6.03833,-4.05859,-0.165771
939,-8.83499e+36,-0.126212,0.00406281,9.70365,-0.62783,-0.110705,6.34839,-4.05518,-0.169922
940,-8.84027e+36,-0.10657,0.00169522,9.67343,-0.524221,-0.218848,-2.82715,-4.05859,-0.166748
941,-8.84555e+36,-0.128558,-0.0147277,9.68581,-0.588718,-0.255246,-4.29761,-4.05762,-0.167725
942,-8.85083e+36,-0.120561,-0.000908543,9.67203,-0.608441,-0.293206,-6.40381,-4.05176,-0.167969
943,-8.85611e+36,-0.151104,0.0015164,9.69178,-0.625781,-0.128609,4.50244,-4.04761,-0.164307
944,-8.86139e+36,-0.154108,0.0125747,9.67816,-0.538309,-0.200764,5.82715,-4.05762,-0.17041
945,-8.86668e+36,-0.12682,0.00449199,9.70236,-0.598963,-0.0992552,5.24585,-4.05444,-0.165283
946,-8.87196e+36,-0.121412,-0.0013948,9.67971,-0.637026,-0.24792,2.94019,-4.05591,-0.165527
947,-8.87724e+36,-0.117328,-0.0185116,9.70031,-0.598605,-0.209063,-6.61377,-4.05176,-0.169434
948,-8.88252e+36,-0.107471,-0.00334038,9.69394,-0.689125,-0.221102,-4.18652,-4.06201,-0.165771
949,-8.8878e+36,-0.140596,-0.00409143,9.68227,-0.561515,-0.242234,-5.3999,-4.05688,-0.170898
950,-8.89308e+36,-0.127178,-0.00309735,9.69483,-0.660975,-0.218285,6.61304,-4.05688,-0.165771
951,-8.89837e+36,-0.11388,-0.0124173,9.6753,-0.502603,-0.240492,0.179443,-4.06274,-0.169434
952,-8.90365e+36,-0.116526,-0.0164442,9.68985,-0.567791,-0.252018,6.71729,-4.0564,-0.166748
953,-8.90893e+36,-0.119989,-0.0127106,9.6977,-0.611975,-0.22123,7.45898,-4.06177,-0.166748
954,-8.91421e+36,-0.121355,-0.00373367,9.66733,-0.618507,-0.251916,5.39868,-4.05078,-0.167969
955,-8.91949e+36,-0.140275,-0.0095779,9.68599,-0.598297,-0.332498,-4.60962,-4.05957,-0.167236
956,-8.92477e+36,-0.138579,-0.0148277,9.65249,-0.636744,-0.22789,5.25366,-4.0603,-0.168945
957,-8.93006e+36,-0.124252,-0.00424164,9.72466,-0.64489,-0.238776,-1.98706,-4.05908,-0.161377
958,-8.93534e+36,-0.132607,0.00198128,9.69799,-0.50583,-0.079481,1.79443,-4.06226,-0.167969
959,-8.94062e+36,-0.131948,0.00291856,9.722,-0.535978,-0.25832,5.14551,-4.05786,-0.166992
960,-8.9459e+36,-0.131884,0.00730305,9.72613,-0.59717,-0.217004,-3.72168,-4.0564,-0.164307
961,-8.95118e+36,-0.136455,0.0208648,9.66132,-0.614588,-0.151918,4.14673,-4.05615,-0.16748
962,-8.95646e+36,-0.116749,0.0155573,9.68784,-0.547018,-0.266644,3.96143,-4.06665,-0.16333
963,-8.96175e+36,-0.115096,0.00144487,9.69404,-0.67076,-0.110167,-7.22998,-4.06152,-0.166992
964,-8.96703e+36,-0.139524,0.00944873,9.69567,-0.57924,-0.259472,-3.76709,-4.06201,-0.168213
965,-8.97231e+36,-0.137692,-0.0125817,9.68649,-0.421098,-0.23163,-7.38696,-4.06177,-0.167236
966,-8.97759e+36,-0.135453,-0.0147062,9.68446,-0.643916,-0.240057,-5.24365,-4.05615,-0.168945
967,-8.98287e+36,-0.143372,-0.00212439,9.69142,-0.668275,-0.297868,-4.00562,-4.07178,-0.166748
968,-8.98815e+36,-0.133837,0.00800412,9.65708,-0.532827,-0.138778,3.22461,-4.06421,-0.168945
969,-8.99344e+36,-0.130818,0.0109939,9.70142,-0.553703,-0.263673,4.85425,-4.06689,-0.16626
970,-8.99872e+36,-0.121384,-0.014041,9.69172,-0.574246,-0.303503,-4.97388,-4.06177,-0.168945
971,-9.004e+36,-0.108459,0.00454921,9.67084,-0.586054,-0.166697,3.95654,-4.06274,-0.168213
972,-9.00928e+36,-0.126548,0.0112802,9.69421,-0.594276,-0.1616,3.72827,-4.05713,-0.164795
973,-9.01456e+36,-0.127571,0.00300419,9.69363,-0.601832,-0.139751,2.69897,-4.06372,-0.17041
974,-9.01984e+36,-0.133472,-0.0160151,9.68496,-0.576525,-0.214058,-6.49658,-4.06055,-0.165771
975,-9.02513e+36,-0.111406,0.00740319,9.6807,-0.664177,-0.268232,-2.71729,-4.0625,-0.17041
976,-9.03041e+36,-0.126455,-0.00309718,9.69149,-0.528755,-0.270461,-5.87817,-4.05225,-0.167236
977,-9.03569e+36,-0.131655,-0.00702409,9.6804,-0.620377,-0.177404,-0.619629,-4.06201,-0.166748
978,-9.04097e+36,-0.114968,-0.0080541,9.67612,-0.568354,-0.298662,-5.396,-4.05981,-0.167969
979,-9.04625e+36,-0.13697,0.00532887,9.70389,-0.677445,-0.187932,4.10156,-4.06177,-0.165771
980,-9.05153e+36,-0.127964,0.00304011,9.68507,-0.511875,-0.183116,6.2439,-4.05518,-0.170898
981,-9.05682e+36,-0.129388,0.00772507,9.70583,-0.579906,-0.155811,-1.30835,-4.05688,-0.16333
982,-9.0621e+36,-0.126384,-0.00552915,9.70283,-0.696938,-0.180939,5.30249,-4.05762,-0.164062
983,-9.06738e+36,-0.154651,0.0116163,9.72197,-0.719376,-0.238725,-2.67236,-4.05688,-0.168457
984,-9.07266e+36,-0.129259,-0.0126822,9.69517,-0.644992,-0.296869,1.2168,-4.06201,-0.164795
985,-9.07794e+36,-0.148908,0.0127106,9.71287,-0.575706,-0.215032,1.10522,-4.05713,-0.170898
986,-9.08322e+36,-0.14124,0.00497123,9.69362,-0.613768,-0.23455,4.62329,-4.05933,-0.162842
987,-9.08851e+36,-0.133422,-0.001638,9.68183,-0.566561,-0.157784,-7.29639,-4.05103,-0.169922
988,-9.09379e+36,-0.127778,0.00253229,9.6931,-0.59881,-0.265005,7.19629,-4.06152,-0.167725
989,-9.09907e+36,-0.110948,4.29171e-05,9.685,-0.680186,-0.165263,2.62378,-4.05493,-0.168701
990,-9.10435e+36,-0.14335,-0.0041558,9.69145,-0.584133,-0.310137,-1.9939,-4.0542,-0.169434
991,-9.10963e+36,-0.117764,0.011323,9.71767,-0.605853,-0.192081,2.38794,-4.06714,-0.165283
992,-9.11491e+36,-0.135647,-0.00159508,9.69155,-0.534595,-0.194514,4.83472,-4.06079,-0.16748
993,-9.1202e+36,-0.120783,0.000364795,9.69494,-0.637461,-0.235344,2.25879,-4.05664,-0.161865
994,-9.12548e+36,-0.131183,-0.00344052,9.69692,-0.538719,-0.197025,7.29517,-4.05713,-0.16748
995,-9.13076e+36,-0.118143,-0.00313274,9.69655,-0.47645,-0.268821,-4.13989,-4.05786,-0.168945
996,-9.13604e+36,-0.136498,-0.0203713,9.69949,-0.658849,-0.21037,-2.74731,-4.0708,-0.16626
997,-9.14132e+36,-0.139945,0.000672367,9.69786,-0.615997,-0.208141,0.114014,-4.06128,-0.169434
998,-9.1466e+36,-0.124717,-0.00711689,9.68569,-0.490743,-0.219796,5.1416,-4.05493,-0.16626
999,-9.15189e+36,-0.138036,-0.00249634,9.67562,-0.521096,-0.240748,6.82031,-4.05493,-0.169922
1000,-9.15717e+36,-0.14541,-0.00141626,9.6687,-0.603062,-0.217593,-0.150879,-4.05933,-0.164307
1001,-9.16245e+36,-0.142448,-0.00551467,9.68672,-0.510927,-0.224867,2.57617,-4.05859,-0.167725
1002,-9.16773e+36,-0.146311,0.00790389,9.71019,-0.440719,-0.236932,3.99634,-4.06128,-0.16748
1003,-9.17301e+36,-0.132349,-0.00539324,9.69939,-0.536516,-0.16493,7.55957,-4.05835,-0.16626
1004,-9.17829e+36,-0.143322,-0.00796111,9.68862,-0.512618,-0.275532,2.12061,-4.06299,-0.169922
1005,-9.18358e+36,-0.125969,-0.0174029,9.67803,-0.526091,-0.170924,5.66406,-4.05347,-0.163818
1006,-9.18886e+36,-0.118802,-0.0225243,9.71233,-0.590511,-0.263442,6.04297,-4.06201,-0.166504
1007,-9.19414e+36,-0.132092,-0.00326885,9.68149,-0.578011,-0.193644,0.154785,-4.05225,-0.165771
1008,-9.19942e+36,-0.129201,0.0117808,9.69198,-0.633645,-0.118415,-4.87256,-4.05884,-0.164307
1009,-9.2047e+36,-0.123873,0.000343336,9.71111,-0.66428,-0.178634,4.08789,-4.05151,-0.168457
1010,-9.20998e+36,-0.140067,-0.00635172,9.69835,-0.593482,-0.224637,-1.26343,-4.05127,-0.165283
1011,-9.21527e+36,-0.150803,-0.0108079,9.68741,-0.681134,-0.261752,-3.92529,-4.06128,-0.17041
1012,-9.22055e+36,-0.131376,0.00400559,9.69361,-0.691917,-0.190186,6.29858,-4.05688,-0.165771
1013,-9.22583e+36,-0.121126,-0.00845466,9.68671,-0.580162,-0.136934,-0.0534668,-4.05347,-0.168213
1014,-9.23111e+36,-0.12064,0.0105503,9.69212,-0.508263,-0.175048,-7.02466,-4.05811,-0.167236
1015,-9.23639e+36,-0.11893,0.0196059,9.70765,-0.647886,-0.241363,2.42041,-4.05981,-0.164795
1016,-9.24167e+36,-0.123387,0.00345482,9.6881,-0.600474,-0.278375,7.45557,-4.05933,-0.167969
1017,-9.24696e+36,-0.119774,0.00538609,9.68087,-0.556802,-0.297304,-4.35474,-4.05396,-0.164307
1018,-9.25224e+36,-0.115468,0.00724583,9.69567,-0.629956,-0.177993,-2.35693,-4.05737,-0.165527
1019,-9.25752e+36,-0.131033,0.00648059,9.65949,-0.694556,-0.285394,7.71436,-4.05664,-0.16626
1020,-9.2628e+36,-0.139108,0.0295485,9.69139,-0.546864,-0.156887,0.31958,-4.05786,-0.163818
1021,-9.26808e+36,-0.153529,0.00419872,9.68426,-0.62363,-0.180042,5.87744,-4.05591,-0.17041
1022,-9.27336e+36,-0.117929,-0.00261079,9.68056,-0.505241,-0.198024,-7.97461,-4.05371,-0.164795
1023,-9.27865e+36,-0.1274,-0.00266807,9.66444,-0.582417,-0.0966425,-6.00806,-4.06445,-0.16748
1024,-9.28393e+36,-0.127406,0.00562929,9.68549,-0.624193,-0.233832,6.66675,-4.05762,-0.166748
1025,-9.28921e+36,-0.13104,-0.00510713,9.70867,-0.606366,-0.176098,3.72363,-4.05371,-0.165771
1026,-9.29449e+36,-0.132413,0.00803992,9.69526,-0.636924,-0.162548,-2.25073,-4.05835,-0.16748
1027,-9.29977e+36,-0.126298,0.00663784,9.70604,-0.537771,-0.166006,-6.44531,-4.05981,-0.165771
1028,-9.30505e+36,-0.128078,0.0236689,9.69116,-0.608184,-0.198305,1.53101,-4.06152,-0.166992
1029,-9.31034e+36,-0.126069,-0.00602985,9.72531,-0.55296,-0.2502,2.9939,-4.05713,-0.163818
1030,-9.31562e+36,-0.132428,-0.00587248,9.68888,-0.648655,-0.258345,-2.92969,-4.06055,-0.167969
1031,-9.3209e+36,-0.108087,-0.00537179,9.69544,-0.663332,-0.179607,2.15186,-4.05518,-0.166016
1032,-9.32618e+36,-0.139366,-0.00341191,9.69508,-0.566433,-0.248458,-1.62378,-4.0564,-0.164795
1033,-9.33146e+36,-0.114538,-0.0112371,9.69351,-0.564384,-0.279759,-3.92847,-4.05884,-0.168457
1034,-9.33674e+36,-0.140667,-0.00172365,9.69729,-0.579804,-0.259703,1.52832,-4.05957,-0.165771
1035,-9.34203e+36,-0.124338,0.00135189,9.68968,-0.577447,-0.21224,-0.67749,-4.05786,-0.168457
1036,-9.34731e+36,-0.147527,-0.00204571,9.69587,-0.507725,-0.2231,-3.71851,-4.05884,-0.168701
1037,-9.35259e+36,-0.138229,-0.00313295,9.68815,-0.675857,-0.195846,-4.60767,-4.06104,-0.165283
1038,-9.35787e+36,-0.127571,0.00546468,9.69413,-0.629419,-0.216261,7.13306,-4.05347,-0.17041
1039,-9.36315e+36,-0.132463,0.00490685,9.70541,-0.640484,-0.212777,-7.12476,-4.06152,-0.165771
1040,-9.36843e+36,-0.115884,-0.0204859,9.68602,-0.544584,-0.164341,3.78369,-4.05933,-0.169434
1041,-9.37372e+36,-0.131891,0.00454206,9.71105,-0.642969,-0.187829,4.40918,-4.0564,-0.165283
1042,-9.379e+36,-0.137935,-0.00511428,9.7197,-0.573144,-0.309753,-0.00292969,-4.05225,-0.167969
1043,-9.38428e+36,-0.139988,0.0158579,9.70154,-0.66994,-0.21872,2.78931,-4.06104,-0.166748
1044,-9.38956e+36,-0.123694,0.0100712,9.66921,-0.612821,-0.173818,-0.576416,-4.05493,-0.165771
1045,-9.39484e+36,-0.138301,0.0201351,9.69654,-0.611386,-0.232065,-4.28027,-4.06274,-0.166992
1046,-9.40012e+36,-0.131949,-0.0106363,9.68624,-0.604624,-0.215697,-6.40039,-4.0542,-0.163818
1047,-9.40541e+36,-0.111048,0.00794663,9.69456,-0.53567,-0.230093,-0.887451,-4.05786,-0.169922
1048,-9.41069e+36,-0.129217,0.00473501,9.68403,-0.678137,-0.250968,-4.2915,-4.06201,-0.16626
1049,-9.41597e+36,-0.134202,0.00295412,9.68785,-0.613845,-0.19308,-4.61694,-4.0542,-0.168701
1050,-9.42125e+36,-0.124259,0.00305441,9.70596,-0.663383,-0.198408,5.14624,-4.05835,-0.167969
1051,-9.42653e+36,-0.125261,0.0123458,9.69407,-0.559031,-0.304143,-1.15112,-4.05664,-0.16626
1052,-9.43181e+36,-0.144394,0.0100784,9.71126,-0.613819,-0.199099,-4.25049,-4.05347,-0.170898
1053,-9.4371e+36,-0.125189,-0.00385544,9.69094,-0.568687,-0.0785589,-0.834961,-4.05762,-0.163818
1054,-9.44238e+36,-0.150539,-0.0128966,9.67647,-0.527935,-0.174638,-0.67627,-4.05884,-0.16748
1055,-9.44766e+36,-0.132478,0.0165445,9.68589,-0.612001,-0.181272,6.05493,-4.06274,-0.166992
1056,-9.45294e+36,-0.136154,-0.00577212,9.67488,-0.619199,-0.279067,-0.888672,-4.05688,-0.165283
1057,-9.45822e+36,-0.148529,0.000922797,9.70001,-0.732465,-0.223971,0.00732422,-4.05981,-0.16748
1058,-9.4635e+36,-0.130375,0.00531456,9.69798,-0.556264,-0.110679,2.26538,-4.06152,-0.16626
1059,-9.46879e+36,-0.146912,0.00223169,9.68737,-0.60173,-0.240748,-6.97656,-4.05493,-0.168945
1060,-9.47407e+36,-0.111863,0.00432747,9.68813,-0.603625,-0.157374,-4.45752,-4.05542,-0.168213
1061,-9.47935e+36,-0.141161,0.00166661,9.67993,-0.595095,-0.281296,-1.25903,-4.05469,-0.167236
1062,-9.48463e+36,-0.127042,-0.00316871,9.69559,-0.666559,-0.286982,1.89893,-4.06226,-0.16748
1063,-9.48991e+36,-0.133293,0.00826869,9.69515,-0.579958,-0.269795,3.83423,-4.05762,-0.165283
1064,-9.49519e+36,-0.130847,0.017217,9.67205,-0.638076,-0.270538,1.20776,-4.05518,-0.17041
1065,-9.50048e+36,-0.115332,-0.0141412,9.71466,-0.608953,-0.232116,-5.82373,-4.05396,-0.16333
1066,-9.50576e+36,-0.145145,0.00203856,9.68247,-0.625986,-0.278837,-2.20117,-4.05615,-0.16748
1067,-9.51104e+36,-0.129939,0.000486393,9.68366,-0.695298,-0.177558,-7.07568,-4.05933,-0.17041
1068,-9.51632e+36,-0.151526,0.000300419,9.6938,-0.580623,-0.125663,-2.61475,-4.06055,-0.165283
1069,-9.5216e+36,-0.137506,0.00395552,9.67896,-0.532187,-0.163931,4.62036,-4.05737,-0.16748
1070,-9.52688e+36,-0.138064,-0.00803264,9.67979,-0.597375,-0.170642,-7.12915,-4.05811,-0.165283
1071,-9.53217e+36,-0.122972,-0.00675228,9.69045,-0.59384,-0.236086,1.52905,-4.06006,-0.171387
1072,-9.53745e+36,-0.125468,0.0206503,9.68214,-0.650858,-0.176021,3.57446,-4.05981,-0.166748
1073,-9.54273e+36,-0.110204,-0.000264655,9.69257,-0.553985,-0.114854,4.92773,-4.052,-0.166748
1074,-9.54801e+36,-0.117443,0.0028826,9.70244,-0.719325,-0.258345,5.98804,-4.0603,-0.16748
1075,-9.55329e+36,-0.114288,0.00126616,9.67282,-0.612334,-0.16598,0.969727,-4.06543,-0.166748
1076,-9.55857e+36,-0.138158,0.00498536,9.67975,-0.695888,-0.236957,-6.49805,-4.05957,-0.17041
1077,-9.56386e+36,-0.130703,0.00795414,9.68351,-0.595531,-0.244949,1.5271,-4.05859,-0.165771
1078,-9.56914e+36,-0.130403,0.010064,9.69116,-0.569635,-0.153532,3.14819,-4.05444,-0.166504
1079,-9.57442e+36,-0.11893,-0.0107507,9.69804,-0.484109,-0.258857,-0.418213,-4.05566,-0.16748
1080,-9.5797e+36,-0.118672,-0.0212581,9.66585,-0.568431,-0.21749,-6.97705,-4.05444,-0.166748
1081,-9.58498e+36,-0.119488,0.0137335,9.67659,-0.648322,-0.146846,6.97949,-4.05615,-0.167969
1082,-9.59026e+36,-0.124045,-0.00381257,9.71022,-0.677727,-0.155273,-3.2959,-4.06128,-0.164795
1083,-9.59555e+36,-0.129294,0.0120742,9.70282,-0.649167,-0.225559,-7.02466,-4.05811,-0.168945
1084,-9.60083e+36,-0.138043,-0.028826,9.70679,-0.597811,-0.181605,7.39771,-4.05518,-0.167236
1085,-9.60611e+36,-0.128429,-0.0047781,9.66827,-0.582903,-0.197383,2.2019,-4.05298,-0.166748
1086,-9.61139e+36,-0.152735,-5.72227e-05,9.72134,-0.586105,-0.139521,1.83911,-4.05664,-0.168701
1087,-9.61667e+36,-0.132772,0.000164291,9.70959,-0.649731,-0.289236,0.528564,-4.05737,-0.16333
1088,-9.62195e+36,-0.134194,0.00924147,9.68115,-0.623578,-0.169208,0.845459,-4.05884,-0.171387
1089,-9.62724e+36,-0.131362,-0.00331902,9.67074,-0.667609,-0.260215,4.35767,-4.05713,-0.165771
1090,-9.63252e+36,-0.124066,-0.012918,9.68991,-0.537796,-0.178301,-0.361572,-4.05884,-0.164551
1091,-9.6378e+36,-0.157363,0.0008798,9.66134,-0.625423,-0.245487,-6.29102,-4.05762,-0.167725
1092,-9.64308e+36,-0.128043,-0.0156218,9.65871,-0.549015,-0.318052,3.78491,-4.0603,-0.164307
1093,-9.64836e+36,-0.136605,0.0258003,9.67227,-0.509032,-0.241593,-0.887939,-4.05737,-0.168945
1094,-9.65364e+36,-0.15104,0.0125674,9.69195,-0.662307,-0.135474,2.83423,-4.05542,-0.16333
1095,-9.65893e+36,-0.144309,-0.000400559,9.6887,-0.582365,-0.254708,2.88892,-4.05713,-0.169434
1096,-9.66421e+36,-0.133837,0.00885522,9.68926,-0.537566,-0.181784,-3.77075,-4.05908,-0.169678
1097,-9.66949e+36,-0.130225,-0.00678815,9.69322,-0.72186,-0.222383,-4.82983,-4.05176,-0.165771
1098,-9.67477e+36,-0.132721,0.00291121,9.69437,-0.615946,-0.251019,6.8811,-4.06104,-0.166992
1099,-9.68005e+36,-0.129903,-0.00359073,9.69742,-0.561746,-0.192081,2.02002,-4.06641,-0.165771
1100,-9.68533e+36,-0.135482,-0.00256072,9.69232,-0.568585,-0.227506,4.40405,-4.05249,-0.170898
1101,-9.69062e+36,-0.144967,0.00596547,9.70097,-0.571018,-0.19203,7.34546,-4.05542,-0.164795
1102,-9.6959e+36,-0.138844,-0.00954905,9.66805,-0.665816,-0.259114,5.35522,-4.05786,-0.165527
1103,-9.70118e+36,-0.135804,-0.00800421,9.70131,-0.569994,-0.230528,-1.46362,-4.05859,-0.166992
1104,-9.70646e+36,-0.138837,0.00458497,9.69353,-0.520123,-0.209832,-6.91968,-4.05811,-0.164307
1105,-9.71174e+36,-0.13644,-0.0153572,9.70267,-0.636334,-0.254682,2.47046,-4.05811,-0.167969
1106,-9.71702e+36,-0.134673,-0.010815,9.70497,-0.632236,-0.174561,-1.41333,-4.05688,-0.164795
1107,-9.72231e+36,-0.129517,0.0130754,9.70162,-0.665099,-0.181246,5.4646,-4.06128,-0.166016
1108,-9.72759e+36,-0.127978,0.0149854,9.69263,-0.65493,-0.224073,3.41138,-4.05566,-0.16626
1109,-9.73287e+36,-0.116964,0.00263215,9.70584,-0.623732,-0.213034,3.19702,-4.05176,-0.165283
1110,-9.73815e+36,-0.13943,-0.00975648,9.70752,-0.639178,-0.0808898,5.06372,-4.06689,-0.167725
1111,-9.74343e+36,-0.135568,0.00524303,9.69968,-0.624398,-0.197255,7.52515,-4.06372,-0.164307
1112,-9.74871e+36,-0.134538,-0.00454206,9.69697,-0.626191,-0.25791,2.36646,-4.05859,-0.169922
1113,-9.754e+36,-0.124645,0.0102858,9.69624,-0.645197,-0.139572,-1.67456,-4.05762,-0.164307
1114,-9.75928e+36,-0.125597,0.00193842,9.69559,-0.593046,-0.187983,-1.35718,-4.05957,-0.167969
1115,-9.76456e+36,-0.130518,0.0214657,9.70881,-0.626422,-0.179505,-1.30518,-4.05933,-0.169434
1116,-9.76984e+36,-0.120804,-0.00378385,9.70239,-0.545455,-0.214135,-4.58472,-4.07007,-0.164795
1117,-9.77512e+36,-0.112614,-0.00381247,9.72055,-0.588923,-0.207936,5.08789,-4.05371,-0.166504
1118,-9.7804e+36,-0.132578,0.00403445,9.68909,-0.48685,-0.303452,7.97583,-4.05591,-0.165771
1119,-9.78569e+36,-0.114324,0.0074175,9.68323,-0.603266,-0.237803,3.83887,-4.06152,-0.166016
1120,-9.79097e+36,-0.12765,0.0131325,9.67891,-0.607518,-0.232757,3.94043,-4.05908,-0.167725
1121,-9.79625e+36,-0.152098,0.0124388,9.70943,-0.726138,-0.191261,-4.40747,-4.05371,-0.167236
1122,-9.80153e+36,-0.131233,0.00203141,9.69294,-0.613819,-0.129967,1.31836,-4.05957,-0.168701
1123,-9.80681e+36,-0.116169,-0.00527165,9.67881,-0.530829,-0.352426,4.40723,-4.05493,-0.163818
1124,-9.81209e+36,-0.131026,0.00292551,9.68584,-0.590664,-0.218976,2.3645,-4.05713,-0.169922
1125,-9.81738e+36,-0.142985,-0.00312579,9.68953,-0.625909,-0.157835,5.04199,-4.05884,-0.164307
1126,-9.82266e+36,-0.144094,-0.00818272,9.69289,-0.619429,-0.323405,0.210205,-4.05444,-0.167969
1127,-9.82794e+36,-0.131605,-0.00331904,9.68373,-0.641713,-0.2575,-5.72241,-4.05103,-0.166992
1128,-9.83322e+36,-0.157427,-0.00655922,9.66436,-0.679366,-0.163957,-4.72046,-4.05518,-0.166748
1129,-9.8385e+36,-0.12215,-0.00945627,9.66084,-0.514385,-0.268079,7.45312,-4.05737,-0.17041
1130,-9.84378e+36,-0.117299,0.00687388,9.67892,-0.589768,-0.218669,-2.6748,-4.05493,-0.162842
1131,-9.84907e+36,-0.130232,0.00726001,9.72747,-0.602703,-0.201738,-4.22461,-4.06494,-0.167969
1132,-9.85435e+36,-0.139445,-0.000700979,9.69771,-0.565178,-0.325019,6.8269,-4.05981,-0.168701
1133,-9.85963e+36,-0.137048,0.00121598,9.70896,-0.46933,-0.222024,6.61182,-4.05591,-0.168701
1134,-9.86491e+36,-0.129288,0.0166518,9.70287,-0.690637,-0.213725,7.40283,-4.05908,-0.166016
1135,-9.87019e+36,-0.121126,0.0193127,9.72867,-0.570429,-0.20184,-0.882324,-4.06177,-0.164307
1136,-9.87547e+36,-0.13491,0.00454921,9.70765,-0.610233,-0.223177,1.94458,-4.05713,-0.168457
1137,-9.88076e+36,-0.125755,0.000901125,9.68859,-0.581674,-0.154941,-7.55493,-4.05371,-0.164795
1138,-9.88604e+36,-0.12559,-0.00986386,9.7134,-0.680596,-0.186113,-2.21216,-4.04785,-0.166992
1139,-9.89132e+36,-0.126312,-0.00287544,9.70686,-0.745297,-0.187394,-1.354,-4.06201,-0.169189
1140,-9.8966e+36,-0.138672,-0.00406997,9.71476,-0.629982,-0.179786,-4.4082,-4.05322,-0.165283
1141,-9.90188e+36,-0.137413,0.00858341,9.6737,-0.591305,-0.255041,0.630371,-4.05493,-0.169434
1142,-9.90716e+36,-0.129145,0.00845466,9.69185,-0.552038,-0.17953,6.71606,-4.05542,-0.16626
1143,-9.91245e+36,-0.141455,0.00170238,9.68443,-0.64699,-0.210242,-3.51074,-4.05737,-0.168945
1144,-9.91773e+36,-0.134881,-0.00339744,9.69481,-0.565844,-0.181502,7.552,-4.05298,-0.168213
1145,-9.92301e+36,-0.144015,-0.00727444,9.68018,-0.520353,-0.216722,0.107666,-4.0564,-0.16626
1146,-9.92829e+36,-0.131269,0.00103001,9.69343,-0.500656,-0.240159,-2.56543,-4.05835,-0.16748
1147,-9.93357e+36,-0.12383,0.00429156,9.69722,-0.60301,-0.197281,7.40161,-4.05811,-0.168213
1148,-9.93885e+36,-0.124416,0.0197348,9.66388,-0.620479,-0.21352,-6.06274,-4.06323,-0.170898
1149,-9.94414e+36,-0.133608,-0.00831898,9.68554,-0.454397,-0.303324,4.83398,-4.05981,-0.165771
1150,-9.94942e+36,-0.134416,-0.00190266,9.66972,-0.571197,-0.231834,-5.65796,-4.06006,-0.164551
1151,-9.9547e+36,-0.114259,-0.00890512,9.69405,-0.568252,-0.226507,-2.1438,-4.05981,-0.167236
1152,-9.95998e+36,-0.127578,0.0010014,9.70307,-0.655699,-0.235779,6.0293,-4.05176,-0.164307
1153,-9.96526e+36,-0.142621,-0.00517866,9.66823,-0.602319,-0.266414,-4.97583,-4.0603,-0.17041
1154,-9.97054e+36,-0.141806,-0.0112945,9.66583,-0.573579,-0.264621,-1.51685,-4.05786,-0.163818
1155,-9.97583e+36,-0.144015,0.000758201,9.68197,-0.758694,-0.253607,-7.22974,-4.06152,-0.168945
1156,-9.98111e+36,-0.143228,-0.00412711,9.68342,-0.713741,-0.205093,1.05005,-4.05493,-0.165771
1157,-9.98639e+36,-0.13305,-0.00462074,9.70516,-0.716891,-0.132221,4.98608,-4.05615,-0.167236
1158,-9.99167e+36,-0.112729,0.00613714,9.68152,-0.626114,-0.227301,-7.55591,-4.05322,-0.167969
1159,-9.99695e+36,-0.124281,-0.00653068,9.67717,-0.599757,-0.204017,7.61719,-4.0625,-0.167725
1160,-1.00022e+37,-0.125196,0.0053076,9.6785,-0.587104,-0.313826,3.64795,-4.06714,-0.170898
1161,-1.00075e+37,-0.139931,0.00865494,9.67775,-0.633286,-0.277172,-5.86865,-4.05957,-0.165283
1162,-1.00128e+37,-0.138701,0.00864063,9.70543,-0.577524,-0.248714,0.0576172,-4.05811,-0.165527
1163,-1.00181e+37,-0.152277,0.0148851,9.69571,-0.543816,-0.167799,0.895996,-4.05762,-0.16748
1164,-1.00234e+37,-0.127371,0.00287534,9.6843,-0.581059,-0.171743,-0.393066,-4.06616,-0.164307
1165,-1.00286e+37,-0.133429,0.00472088,9.72353,-0.586515,-0.224073,2.57739,-4.05957,-0.168945
1166,-1.00339e+37,-0.117664,0.0062802,9.69731,-0.602677,-0.282627,-3.97681,-4.06201,-0.162842
1167,-1.00392e+37,-0.105097,0.00941314,9.68797,-0.604855,-0.20873,7.13647,-4.05591,-0.166504
1168,-1.00445e+37,-0.100755,0.00798973,9.69695,-0.485876,-0.08632,-2.41113,-4.05615,-0.168213
1169,-1.00498e+37,-0.127271,0.0172598,9.70097,-0.63636,-0.17743,-1.67114,-4.06006,-0.165283
1170,-1.00551e+37,-0.135854,-0.00648763,9.69905,-0.609209,-0.227173,6.66968,-4.06006,-0.166016
1171,-1.00603e+37,-0.119603,0.029484,9.67998,-0.620326,-0.274687,-0.990234,-4.05933,-0.165283
1172,-1.00656e+37,-0.131605,0.00521442,9.68,-0.64284,-0.226891,-1.30713,-4.05786,-0.168457
1173,-1.00709e+37,-0.136891,0.00970638,9.6937,-0.753981,-0.070516,0.470215,-4.05273,-0.165283
1174,-1.00762e+37,-0.135124,-0.009313,9.68996,-0.51541,-0.216159,7.87915,-4.06226,-0.166016
1175,-1.00815e+37,-0.125991,0.00133746,9.71284,-0.503883,-0.181323,3.94531,-4.0625,-0.167969
1176,-1.00867e+37,-0.138049,0.00555078,9.68994,-0.625807,-0.231988,0.530762,-4.05884,-0.16333
1177,-1.0092e+37,-0.125389,-0.00874077,9.68804,-0.679853,-0.244001,-2.36328,-4.05249,-0.167969
1178,-1.00973e+37,-0.121541,0.0206717,9.71862,-0.606571,-0.197537,7.18408,-4.05225,-0.16626
1179,-1.01026e+37,-0.146791,-0.0023819,9.66038,-0.658388,-0.267105,-0.464844,-4.05981,-0.166016
1180,-1.01079e+37,-0.12363,0.00957041,9.66437,-0.57714,-0.120874,5.19897,-4.05859,-0.165771
1181,-1.01131e+37,-0.137199,0.0110011,9.70023,-0.684925,-0.264749,-1.30493,-4.05933,-0.166748
1182,-1.01184e+37,-0.132664,0.0205644,9.69191,-0.57276,-0.215262,-4.55957,-4.05786,-0.167725
1183,-1.01237e+37,-0.126735,0.00431299,9.70298,-0.602934,-0.233499,1.94604,-4.05811,-0.16626
1184,-1.0129e+37,-0.121369,0.0234256,9.69375,-0.639229,-0.161293,-7.89526,-4.06543,-0.167969
1185,-1.01343e+37,-0.132342,0.00077966,9.67913,-0.571889,-0.220206,5.77734,-4.05981,-0.162842
1186,-1.01396e+37,-0.129331,0.0151569,9.69531,-0.625602,-0.199637,-7.96704,-4.05957,-0.167725
1187,-1.01448e+37,-0.124725,-0.0138052,9.68487,-0.654341,-0.290465,5.67114,-4.05835,-0.168457
1188,-1.01501e+37,-0.143236,-0.00932025,9.68627,-0.707772,-0.147205,3.53662,-4.06274,-0.163818
1189,-1.01554e+37,-0.11755,0.00211724,9.71405,-0.556751,-0.24792,-2.2002,-4.05664,-0.167969
1190,-1.01607e+37,-0.130619,-0.0196562,9.69039,-0.619557,-0.265338,5.04053,-4.05786,-0.16626
1191,-1.0166e+37,-0.12554,-0.00698117,9.70632,-0.571069,-0.2627,5.82471,-4.05566,-0.17041
1192,-1.01712e+37,-0.139402,0.0041558,9.70267,-0.545711,-0.185857,4.78076,-4.05957,-0.166748
1193,-1.01765e+37,-0.144974,0.00788243,9.70709,-0.576679,-0.239698,-4.66504,-4.05737,-0.166748
1194,-1.01818e+37,-0.121484,0.00502816,9.67821,-0.5296,-0.38324,-1.83032,-4.05884,-0.169922
1195,-1.01871e+37,-0.135031,0.00309718,9.69347,-0.553165,-0.188546,-1.04639,-4.05664,-0.165283
1196,-1.01924e+37,-0.125146,-0.000765354,9.69641,-0.600705,-0.229222,-4.39819,-4.06104,-0.171387
1197,-1.01977e+37,-0.126555,-0.00198849,9.69829,-0.621555,-0.293232,1.73535,-4.05762,-0.165283
1198,-1.02029e+37,-0.137556,0.0183041,9.69732,-0.553524,-0.222998,6.5127,-4.0603,-0.167969
1199,-1.02082e+37,-0.138865,0.0140841,9.69336,-0.589051,-0.254144,7.49878,-4.05225,-0.166504
1200,-1.02135e+37,-0.131691,-0.00193842,9.68595,-0.642046,-0.259037,-3.92627,-4.06079,-0.16333
1201,-1.02188e+37,-0.142299,0.0017596,9.70167,-0.640253,-0.205093,-3.71802,-4.05933,-0.17041
1202,-1.02241e+37,-0.129345,0.00932015,9.72041,-0.633542,-0.294103,-3.35547,-4.05615,-0.164307
1203,-1.02293e+37,-0.128057,0.00800403,9.69085,-0.636053,-0.184909,-3.56641,-4.05518,-0.166504
1204,-1.02346e+37,-0.126683,-0.00108709,9.69916,-0.625781,-0.182527,0.894775,-4.05664,-0.168213
1205,-1.02399e+37,-0.127371,-0.00399865,9.66583,-0.625167,-0.262725,-6.7644,-4.0564,-0.168213
1206,-1.02452e+37,-0.13119,0.0143558,9.65514,-0.598144,-0.124511,-6.02563,-4.05981,-0.169678
1207,-1.02505e+37,-0.15664,0.00404151,9.6848,-0.62322,-0.213034,0.321777,-4.05981,-0.16333
1208,-1.02558e+37,-0.12471,0.00194557,9.69061,-0.563539,-0.190852,1.10229,-4.05469,-0.168945
1209,-1.0261e+37,-0.126183,0.00219592,9.69633,-0.531239,-0.199125,-1.20337,-4.05688,-0.164307
1210,-1.02663e+37,-0.127406,0.000486555,9.70368,-0.582954,-0.181298,3.24951,-4.052,-0.167236
1211,-1.02716e+37,-0.139673,-0.00633732,9.69626,-0.668019,-0.23437,0.368408,-4.05518,-0.16748
1212,-1.02769e+37,-0.12986,-0.0114016,9.69172,-0.600142,-0.188598,0.99585,-4.05371,-0.166748
1213,-1.02822e+37,-0.131619,-0.0092056,9.69582,-0.560004,-0.152097,3.20947,-4.06152,-0.166504
1214,-1.02874e+37,-0.122027,-0.0110725,9.69712,-0.567816,-0.169387,-2.03784,-4.0603,-0.163818
1215,-1.02927e+37,-0.12908,0.00709562,9.70314,-0.636206,-0.17159,-2.14771,-4.05688,-0.168945
1216,-1.0298e+37,-0.126848,0.0173458,9.68763,-0.586617,-0.142979,-1.88501,-4.05713,-0.169189
1217,-1.03033e+37,-0.128466,0.023268,9.7087,-0.613845,-0.298892,-3.56641,-4.05518,-0.167725
1218,-1.03086e+37,-0.126834,0.0183972,9.67875,-0.609798,-0.204094,-0.527832,-4.05225,-0.170166
1219,-1.03139e+37,-0.132027,0.00846897,9.7057,-0.66369,-0.239596,0.476318,-4.05762,-0.165283
1220,-1.03191e+37,-0.136498,0.00683812,9.72428,-0.665381,-0.284907,0.165283,-4.06055,-0.170898
1221,-1.03244e+37,-0.121605,-0.00220308,9.69328,-0.494969,-0.233986,3.07617,-4.07129,-0.165283
1222,-1.03297e+37,-0.133465,-0.0279748,9.69119,-0.644172,-0.36946,2.83594,-4.05688,-0.164551
1223,-1.0335e+37,-0.123051,-0.0156434,9.69768,-0.663793,-0.165161,5.93408,-4.05908,-0.166992
1224,-1.03403e+37,-0.123737,0.00382654,9.67959,-0.584312,-0.310009,-6.02759,-4.05835,-0.166748
1225,-1.03455e+37,-0.143043,-0.00253926,9.67809,-0.681544,-0.144644,-0.158936,-4.05347,-0.16748
1226,-1.03508e+37,-0.132749,-0.000428964,9.65951,-0.621529,-0.248048,2.46606,-4.05469,-0.165771
1227,-1.03561e+37,-0.1281,-0.00248182,9.67395,-0.562079,-0.289799,-7.75781,-4.05908,-0.169434
1228,-1.03614e+37,-0.138358,-0.0135333,9.70654,-0.654572,-0.232757,-6.86255,-4.06177,-0.164795
1229,-1.03667e+37,-0.108595,-0.000808449,9.69373,-0.583646,-0.230579,-1.51636,-4.05786,-0.165771
1230,-1.0372e+37,-0.149438,0.0078751,9.70401,-0.574988,-0.256757,-5.86816,-4.06006,-0.168945
1231,-1.03772e+37,-0.142241,0.00326885,9.6775,-0.560081,-0.213981,-4.08838,-4.05713,-0.164307
1232,-1.03825e+37,-0.126212,-0.00562213,9.68144,-0.603676,-0.1522,-7.96753,-4.05908,-0.169434
1233,-1.03878e+37,-0.119845,-0.00887655,9.69197,-0.550783,-0.16785,-1.77979,-4.05762,-0.16626
1234,-1.03931e+37,-0.126205,0.00345482,9.70105,-0.643916,-0.251993,-6.08301,-4.05615,-0.166016
1235,-1.03984e+37,-0.138179,0.0101856,9.6877,-0.667737,-0.173665,7.61548,-4.06104,-0.167725
1236,-1.04036e+37,-0.142628,0.0223669,9.69853,-0.579445,-0.0508955,6.03174,-4.05371,-0.164795
1237,-1.04089e+37,-0.130382,-0.00239632,9.65855,-0.601166,-0.162881,0.479736,-4.06006,-0.16748
1238,-1.04142e+37,-0.116813,0.00365525,9.69184,-0.62509,-0.174817,7.03101,-4.05542,-0.16333
1239,-1.04195e+37,-0.124309,0.0072245,9.69453,-0.632108,-0.175022,-5.23975,-4.05908,-0.16748
1240,-1.04248e+37,-0.118465,-0.00752464,9.70754,-0.63321,-0.207731,-0.358887,-4.06079,-0.165771
1241,-1.043e+37,-0.138393,0.00956348,9.71042,-0.629393,-0.201584,-4.01636,-4.06396,-0.16626
1242,-1.04353e+37,-0.127185,0.00149494,9.68518,-0.611079,-0.259037,-0.681641,-4.05493,-0.168945
1243,-1.04406e+37,-0.144416,-0.00409882,9.69472,-0.595403,-0.297458,6.92749,-4.0564,-0.165771
1244,-1.04459e+37,-0.129667,0.00409143,9.70978,-0.607339,-0.218515,7.40137,-4.05762,-0.169434
1245,-1.04512e+37,-0.124538,-0.021487,9.7198,-0.539666,-0.144387,-1.05493,-4.05029,-0.165771
1246,-1.04565e+37,-0.135689,0.00846181,9.69967,-0.599809,-0.278145,-0.493896,-4.06958,-0.165527
1247,-1.04617e+37,-0.126784,0.0013807,9.71336,-0.695862,-0.272817,1.26636,-4.05981,-0.169434
1248,-1.0467e+37,-0.144781,0.00741736,9.68363,-0.710308,-0.207398,7.35352,-4.06128,-0.165771
1249,-1.04723e+37,-0.139831,-0.00961342,9.71488,-0.53941,-0.176277,-6.56201,-4.05103,-0.167969
1250,-1.04776e+37,-0.130211,0.00262492,9.70663,-0.511644,-0.223638,5.87988,-4.05786,-0.162842
1251,-1.04829e+37,-0.134867,0.00869798,9.69101,-0.691559,-0.309676,-6.81616,-4.05713,-0.167969
1252,-1.04881e+37,-0.151948,-0.00268232,9.68519,-0.507956,-0.281039,5.6731,-4.05981,-0.165771
1253,-1.04934e+37,-0.135647,0.00356927,9.68705,-0.687204,-0.220078,-4.82593,-4.05469,-0.165771
1254,-1.04987e+37,-0.114932,-0.00605131,9.71649,-0.655186,-0.155069,6.71826,-4.05737,-0.168701
1255,-1.0504e+37,-0.12436,0.0100996,9.70405,-0.545634,-0.253888,3.93481,-4.05469,-0.16626
1256,-1.05093e+37,-0.113237,0.00117307,9.67131,-0.610771,-0.257013,0.789307,-4.05615,-0.168945
1257,-1.05146e+37,-0.124839,0.00979939,9.67476,-0.586489,-0.2252,5.82422,-4.05518,-0.165283
1258,-1.05198e+37,-0.125948,-0.00203867,9.70499,-0.576781,-0.201763,3.65649,-4.07397,-0.166992
1259,-1.05251e+37,-0.145382,0.0124889,9.71498,-0.561182,-0.231732,-3.69385,-4.06934,-0.16748
1260,-1.05304e+37,-0.124738,-0.0119166,9.6967,-0.572965,-0.250866,6.03662,-4.05713,-0.16333
1261,-1.05357e+37,-0.129316,0.0107722,9.68105,-0.693736,-0.156247,4.57178,-4.06006,-0.171387
1262,-1.0541e+37,-0.147434,-0.0213083,9.6933,-0.553908,-0.236906,7.13818,-4.05737,-0.165283
1263,-1.05462e+37,-0.144938,-0.0129967,9.72922,-0.638537,-0.100664,0.954102,-4.06177,-0.168457
1264,-1.05515e+37,-0.152241,-0.00306857,9.70863,-0.473146,-0.312903,-2.98169,-4.06079,-0.166748
1265,-1.05568e+37,-0.130761,0.00322593,9.69918,-0.534339,-0.209704,-6.54858,-4.06128,-0.165283
1266,-1.05621e+37,-0.122106,-0.011652,9.68433,-0.540127,-0.257449,-5.44702,-4.06104,-0.169678
1267,-1.05674e+37,-0.130439,-0.000343336,9.68423,-0.622195,-0.15115,7.82202,-4.05859,-0.167725
1268,-1.05727e+37,-0.139073,0.0195201,9.70536,-0.621376,-0.176047,-3.9834,-4.05713,-0.168945
1269,-1.05779e+37,-0.127936,-0.00951346,9.71835,-0.673321,-0.236778,3.67871,-4.05933,-0.164795
1270,-1.05832e+37,-0.134939,-0.00266102,9.69191,-0.742147,-0.230426,7.30078,-4.06104,-0.167969
1271,-1.05885e+37,-0.135031,-0.00413434,9.67898,-0.584952,-0.199048,0.163818,-4.05908,-0.167969
1272,-1.05938e+37,-0.13604,0.00190266,9.71484,-0.628215,-0.293975,-5.30078,-4.05249,-0.163818
1273,-1.05991e+37,-0.133344,0.028132,9.70666,-0.570583,-0.233294,7.74512,-4.07153,-0.169922
1274,-1.06043e+37,-0.143822,0.0050213,9.69734,-0.468997,-0.154787,4.20264,-4.05884,-0.164307
1275,-1.06096e+37,-0.125182,0.0183828,9.68879,-0.558339,-0.205708,-5.34473,-4.05908,-0.168457
1276,-1.06149e+37,-0.140246,-0.0101285,9.69018,-0.563846,-0.178608,-6.91553,-4.06152,-0.166748
1277,-1.06202e+37,-0.134602,-0.00470657,9.70536,-0.558877,-0.143978,-4.21582,-4.07178,-0.167725
