timestamp_ms,acc_x,acc_y,acc_z,gyr_x,gyr_y,gyr_z,mag_x,mag_y,mag_z
0,1.02816e-34,0,0,0,0,0,0,0,-0.247314
1,1.02912e-34,0.0706286,0.0832213,9.88068,1.70159,0.209742,5.95361,3.93433,-0.240234
2,1.03008e-34,0.0721867,0.104019,9.86599,1.58192,0.181951,-5.29199,3.94092,-0.246826
3,1.03103e-34,0.0463481,0.102606,9.86414,1.62944,0.149139,0.951904,3.93994,-0.244629
4,1.03199e-34,0.0552668,0.0921639,9.88429,1.56714,0.157361,6.1416,3.94263,-0.245361
5,1.03295e-34,0.0551197,0.107178,9.87875,1.65896,0.124536,-3.03467,3.93945,-0.246826
6,1.0339e-34,0.0331034,0.0652411,9.86601,1.59832,0.199855,-4.27002,3.92993,-0.242188
7,1.03486e-34,0.0508983,0.0973244,9.89888,1.66061,0.183411,3.07666,3.92822,-0.247803
8,1.03582e-34,0.0414874,0.0959843,9.87689,1.69831,0.186613,7.70215,3.92139,-0.241699
9,1.03677e-34,0.0523075,0.0947154,9.88054,1.66384,0.10813,3.26196,3.93848,-0.244873
10,1.03773e-34,0.0759742,0.100709,9.87868,1.65072,0.11643,3.41504,3.94165,-0.24292
11,1.03868e-34,0.0611432,0.0920967,9.87686,1.66384,0.124575,-6.65552,3.94043,-0.243896
12,1.03964e-34,0.0683254,0.0962569,9.86584,1.67859,0.109821,0.269287,3.94067,-0.250732
13,1.0406e-34,0.0497838,0.0915189,9.89331,1.59176,0.14271,1.9978,3.94238,-0.243652
14,1.04155e-34,0.0497978,0.10431,9.87129,1.5655,0.152417,-3.87231,3.93823,-0.249756
15,1.04251e-34,0.0438832,0.0923665,9.8768,1.62124,0.142505,2.1731,3.93726,-0.245361
16,1.04347e-34,0.0620286,0.0872369,9.87499,1.66548,0.12624,1.63232,3.94116,-0.244873
17,1.04442e-34,0.056264,0.102394,9.87308,1.62621,0.214993,-6.08618,3.94604,-0.247803
18,1.04538e-34,0.0577746,0.0790674,9.88417,1.70651,0.20672,4.87744,3.94653,-0.239746
19,1.04634e-34,0.0557488,0.0906478,9.85297,1.64416,0.134436,-0.83374,3.94116,-0.248779
20,1.04729e-34,0.050005,0.0748716,9.8732,1.62946,0.149036,-0.188477,3.93726,-0.244629
21,1.04825e-34,0.0699847,0.0917525,9.8786,1.6737,0.137715,0.739502,3.94189,-0.24585
22,1.04921e-34,0.0624982,0.0777102,9.87867,1.6802,0.0949648,4.25732,3.9397,-0.243896
23,1.05016e-34,0.0403759,0.0708034,9.86222,1.75894,0.114688,-3.08936,3.94141,-0.241943
24,1.05112e-34,0.060404,0.101039,9.90415,1.69988,0.100139,6.4541,3.94458,-0.249756
25,1.05208e-34,0.0619465,0.0923095,9.86209,1.66724,0.20964,-6.17993,3.93774,-0.242432
26,1.05303e-34,0.0489419,0.0984329,9.87302,1.67531,0.131106,6.87866,3.94067,-0.246338
27,1.05399e-34,0.0652893,0.0971071,9.87485,1.73594,0.0883307,2.8938,3.93921,-0.241943
28,1.05495e-34,0.0834154,0.0994566,9.84921,1.69178,0.151956,0.715576,3.92847,-0.242432
29,1.0559e-34,0.0668151,0.0763387,9.8677,1.71455,0.0212726,-3.1936,3.94092,-0.246338
30,1.05686e-34,0.0594449,0.108206,9.88025,1.70313,0.0934279,2.47144,3.94116,-0.240234
31,1.05782e-34,0.0848859,0.0944955,9.90602,1.61468,0.0865377,6.69165,3.93188,-0.248291
32,1.05877e-34,0.0333753,0.0855594,9.87674,1.71478,0.186613,-1.86646,3.93726,-0.239014
33,1.05973e-34,0.0624415,0.0734937,9.89336,1.64583,0.118043,-7.91382,3.93994,-0.243408
34,1.06069e-34,0.0604669,0.0973842,9.85103,1.73609,0.181566,2.33374,3.93457,-0.24292
35,1.06164e-34,0.0784865,0.0818605,9.87132,1.61965,0.140609,2.07642,3.93091,-0.241455
36,1.0626e-34,0.061849,0.0914851,9.88405,1.69173,0.137894,1.20996,3.94312,-0.249268
37,1.06356e-34,0.0690103,0.0994749,9.88765,1.70979,0.122577,-0.709473,3.93481,-0.241455
38,1.06451e-34,0.0669421,0.0743576,9.86775,1.58515,0.11,3.04956,3.94043,-0.248291
39,1.06547e-34,0.0391972,0.0656486,9.87331,1.72792,0.194758,-3.81885,3.9375,-0.244873
40,1.06643e-34,0.0226604,0.113985,9.86364,1.62782,0.129339,4.95337,3.93701,-0.246338
41,1.06738e-34,0.0335146,0.103337,9.85645,1.69657,0.0800061,-3.17725,3.93652,-0.246338
42,1.06834e-34,0.0589026,0.100195,9.86383,1.72459,0.168683,-5.18481,3.93896,-0.240234
43,1.0693e-34,0.0605832,0.106587,9.88208,1.70976,0.10124,0.549561,3.93506,-0.249756
44,1.07025e-34,0.0822851,0.0871952,9.89513,1.68359,0.127136,-7.30762,3.92651,-0.244629
45,1.07121e-34,0.0784554,0.0984641,9.86937,1.60984,0.15754,4.46655,3.94019,-0.246826
46,1.07217e-34,0.0764492,0.106346,9.88026,1.64419,0.141198,-6.18506,3.94165,-0.247314
47,1.07312e-34,0.0672277,0.114269,9.87651,1.631,0.0686846,-7.89893,3.93701,-0.243164
48,1.07408e-34,0.0577653,0.0909331,9.87862,1.64258,0.152853,-1.78027,3.94312,-0.249268
49,1.07504e-34,0.0703739,0.0877844,9.87502,1.66061,0.122551,6.63721,3.93311,-0.243652
50,1.07599e-34,0.0552194,0.0609757,9.89734,1.74291,0.311687,7.55688,3.94336,-0.247314
51,1.07695e-34,0.0440865,0.0854564,9.87871,1.66391,0.135794,7.73413,3.93677,-0.246826
52,1.0779e-34,0.075176,0.0895192,9.87687,1.62923,0.0314159,-7.49609,3.94141,-0.245361
53,1.07886e-34,0.0493349,0.102965,9.87484,1.60667,0.186817,-6.70459,3.93774,-0.248291
54,1.07982e-34,0.0584086,0.110681,9.88574,1.72764,0.0742685,6.81982,3.94531,-0.241211
55,1.08077e-34,0.0709954,0.0980826,9.8603,1.79841,0.165199,1.52979,3.93921,-0.246338
56,1.08173e-34,0.0743428,0.0918995,9.87872,1.67219,0.158667,5.68994,3.93555,-0.23999
57,1.08269e-34,0.0632494,0.0995703,9.86579,1.65727,0.108835,-4.92993,3.94482,-0.246338
58,1.08364e-34,0.0667124,0.0821331,9.88254,1.65392,0.0588487,-5.39282,3.93799,-0.24585
59,1.0846e-34,0.0465164,0.108202,9.87115,1.65405,0.13459,-2.51147,3.94067,-0.242432
60,1.08556e-34,0.0354853,0.101063,9.86758,1.56076,0.195373,3.20703,3.94019,-0.251709
61,1.08651e-34,0.0498178,0.112549,9.86013,1.7228,0.0836945,-1.62061,3.94141,-0.243652
62,1.08747e-34,0.0585674,0.0916821,9.88612,1.62303,0.177135,-7.02148,3.9397,-0.248779
63,1.08843e-34,0.0491847,0.0829188,9.88076,1.70655,0.132477,-7.43896,3.93799,-0.244385
64,1.08938e-34,0.0507722,0.0945978,9.8861,1.66899,0.203415,-4.60986,3.94067,-0.243896
65,1.09034e-34,0.0614316,0.0782025,9.86076,1.6788,0.191838,0.95166,3.94043,-0.249268
66,1.0913e-34,0.0611546,0.0739098,9.89565,1.68197,0.130748,-7.84644,3.93677,-0.243164
67,1.09225e-34,0.0426678,0.0706832,9.88105,1.71808,0.125356,6.01147,3.93066,-0.250732
68,1.09321e-34,0.0573739,0.11303,9.86389,1.70328,0.134026,6.83032,3.9375,-0.244141
69,1.09417e-34,0.0586338,0.0740211,9.89754,1.64614,0.19924,5.38232,3.93018,-0.243408
70,1.09512e-34,0.0547215,0.0815451,9.88095,1.66586,0.224189,-4.27808,3.93579,-0.247314
71,1.09608e-34,0.0656794,0.107653,9.88235,1.65395,0.120348,-5.8728,3.9436,-0.246338
72,1.09704e-34,0.0856124,0.096526,9.84781,1.65243,0.122923,5.30762,3.93896,-0.252197
73,1.09799e-34,0.0745684,0.0971857,9.87159,1.59194,0.166531,1.55371,3.92944,-0.25
74,1.09895e-34,0.057568,0.0986843,9.90089,1.63129,0.175253,2.6333,3.93774,-0.250244
75,1.09991e-34,0.0425636,0.0747789,9.87387,1.7477,0.201955,-3.45898,3.94312,-0.253906
76,1.10086e-34,0.0370052,0.103193,9.8825,1.72785,0.131132,3.25928,3.94043,-0.24707
77,1.10182e-34,0.0476262,0.0928127,9.88457,1.65093,0.210869,6.24243,3.94556,-0.248291
78,1.10278e-34,0.0655753,0.0838769,9.86833,1.61824,0.203415,-3.03394,3.93921,-0.244141
79,1.10373e-34,0.0727702,0.0732012,9.87039,1.72421,0.0368973,-4.98413,3.9458,-0.247803
80,1.10469e-34,0.0671563,0.0942896,9.87732,1.68215,0.176674,-4.02832,3.9375,-0.240723
81,1.10565e-34,0.0725864,0.0995999,9.84429,1.69167,0.0970267,-6.60498,3.94189,-0.244385
82,1.1066e-34,0.068626,0.0861299,9.86839,1.65072,0.104929,7.66724,3.93945,-0.245361
83,1.10756e-34,0.0374227,0.0871347,9.88483,1.74557,0.0290593,-7.91211,3.93848,-0.241455
84,1.10852e-34,0.0374165,0.0894892,9.89212,1.59337,0.0779057,-1.96021,3.92896,-0.245361
85,1.10947e-34,0.0500127,0.077172,9.89792,1.57383,0.157617,-5.81396,3.93896,-0.240967
86,1.11043e-34,0.0462574,0.104377,9.84611,1.63108,0.10498,3.41846,3.93921,-0.249756
87,1.11139e-34,0.04951,0.100139,9.87921,1.61015,0.202801,-7.78955,3.93359,-0.241943
88,1.11234e-34,0.0584001,0.0934456,9.89587,1.75093,0.141839,2.4375,3.93604,-0.244873
89,1.1133e-34,0.0730234,0.0938024,9.89956,1.559,0.10101,-0.702637,3.92993,-0.246826
90,1.11425e-34,0.0634334,0.085687,9.90895,1.66729,0.144247,-0.726074,3.93921,-0.240234
91,1.11521e-34,0.0540159,0.0918655,9.91066,1.60021,0.199292,-4.29858,3.94312,-0.251221
92,1.11617e-34,0.0428553,0.0807315,9.88345,1.69165,0.0987813,6.87671,3.94214,-0.244141
93,1.11712e-34,0.0521489,0.104479,9.85913,1.67666,0.0488207,3.25146,3.94653,-0.242432
94,1.11808e-34,0.0572405,0.0904854,9.85952,1.66263,0.2059,0.0791016,3.93433,-0.246338
95,1.11904e-34,0.0570235,0.0956687,9.90155,1.71145,0.103955,7.00391,3.93335,-0.242676
96,1.11999e-34,0.0733593,0.0890197,9.90544,1.58491,0.0398814,4.62305,3.94067,-0.244385
97,1.12095e-34,0.0530673,0.0889877,9.88346,1.6394,0.144964,5.93164,3.94263,-0.240723
98,1.12191e-34,0.0637428,0.0895595,9.889,1.64619,0.206848,5.88232,3.94043,-0.247314
99,1.12286e-34,0.0487634,0.0891814,9.84872,1.60549,0.28136,2.2583,3.9436,-0.24292
100,1.12382e-34,0.0465097,0.0689971,9.89871,1.62116,0.0857437,-4.92529,3.94116,-0.24585
101,1.12478e-34,0.0337185,0.068796,9.88222,1.55595,0.17962,-4.4541,3.94189,-0.249756
102,1.12573e-34,0.0443695,0.0796777,9.85089,1.57871,0.153942,6.71582,3.94507,-0.241211
103,1.12669e-34,0.0681652,0.0916906,9.88181,1.63886,0.0168926,2.89087,3.94165,-0.247314
104,1.12765e-34,0.0680115,0.109143,9.89972,1.69705,0.181093,-5.01074,3.93481,-0.244385
105,1.1286e-34,0.0675536,0.0927647,9.8837,1.64474,0.255348,-1.10083,3.94507,-0.248779
106,1.12956e-34,0.0839138,0.102236,9.8762,1.6082,0.126778,-7.12866,3.94116,-0.241943
107,1.13052e-34,0.0562107,0.0975042,9.87997,1.65082,0.121655,2.68164,3.94116,-0.24292
108,1.13147e-34,0.0598296,0.104728,9.85601,1.63929,0.0983587,4.41528,3.93921,-0.247803
109,1.13243e-34,0.0391679,0.0878149,9.88394,1.64963,0.216517,3.73218,3.93994,-0.241211
110,1.13339e-34,0.0369619,0.0848226,9.88955,1.65121,0.223804,0.842285,3.94336,-0.247314
111,1.13434e-34,0.0516356,0.101492,9.88369,1.63735,0.0811331,-7.87573,3.95044,-0.240967
112,1.1353e-34,0.0662925,0.0992958,9.86547,1.54118,0.157732,-6.07666,3.93896,-0.247314
113,1.13626e-34,0.0584759,0.0991258,9.89668,1.62947,0.122308,-5.40088,3.9436,-0.247803
114,1.13721e-34,0.0710229,0.091515,9.87132,1.62321,0.175573,1.52905,3.9397,-0.241211
115,1.13817e-34,0.0707156,0.0889717,9.89342,1.61161,0.148089,7.92725,3.94116,-0.249756
116,1.13913e-34,0.0833017,0.0947434,9.8915,1.67091,0.196269,-4.13428,3.93799,-0.240967
117,1.14008e-34,0.0611073,0.085848,9.87709,1.7114,0.122039,-0.679688,3.94385,-0.244385
118,1.14104e-34,0.0625443,0.0834912,9.89371,1.63009,0.199689,-2.47827,3.92407,-0.245361
119,1.142e-34,0.0604513,0.0824701,9.90661,1.68877,0.142927,5.74731,3.93188,-0.241699
120,1.14295e-34,0.045619,0.0941079,9.90628,1.67909,0.208602,6.19556,3.94165,-0.249756
121,1.14391e-34,0.0543626,0.0736246,9.87582,1.63145,0.177174,-7.80835,3.9397,-0.239746
122,1.14487e-34,0.0542342,0.0893882,9.89373,1.61826,0.145258,-4.01465,3.93506,-0.248291
123,1.14582e-34,0.0559786,0.0967411,9.88072,1.64269,0.126073,-7.59741,3.93872,-0.24292
124,1.14678e-34,0.0723418,0.100972,9.88802,1.61781,0.0862559,4.77734,3.94312,-0.246338
125,1.14774e-34,0.053715,0.0963379,9.89183,1.5954,0.172012,6.2002,3.93799,-0.249756
126,1.14869e-34,0.0682404,0.0948508,9.89562,1.69322,0.0584645,-4.60669,3.93823,-0.242676
127,1.14965e-34,0.0590852,0.104462,9.88803,1.68503,0.0635233,-7.64966,3.93848,-0.249268
128,1.1506e-34,0.0367434,0.0984487,9.90287,1.63149,0.178749,3.89038,3.93945,-0.240234
129,1.15156e-34,0.055109,0.092424,9.87567,1.67137,-0.0516639,3.11963,3.93579,-0.246338
130,1.15252e-34,0.0513288,0.0923759,9.8574,1.66729,0.126521,-3.92822,3.94092,-0.24585
131,1.15347e-34,0.0676063,0.0920281,9.8905,1.64227,0.0497813,-0.0998535,3.94165,-0.240479
132,1.15443e-34,0.0694326,0.0921715,9.89049,1.60512,0.123486,-1.07129,3.93115,-0.248291
133,1.15539e-34,0.0579775,0.0899856,9.90347,1.61174,0.141839,-5.1145,3.93384,-0.242432
134,1.15634e-34,0.0688262,0.084014,9.87809,1.65408,0.0803647,-3.53491,3.92944,-0.24585
135,1.1573e-34,0.0593791,0.0624563,9.87519,1.71612,0.039971,-7.42627,3.93677,-0.242432
136,1.15826e-34,0.0356911,0.0756221,9.85827,1.6603,0.0378963,2.94434,3.94043,-0.245361
137,1.15921e-34,0.042868,0.1007,9.88131,1.59738,0.231937,-7.49536,3.94116,-0.244385
138,1.16017e-34,0.0518568,0.116284,9.89736,1.61194,0.187048,-3.87329,3.93921,-0.244141
139,1.16113e-34,0.0716502,0.103191,9.88142,1.5658,0.160396,-4.56006,3.94263,-0.247314
140,1.16208e-34,0.086063,0.0851045,9.89307,1.5055,0.224739,3.93799,3.94287,-0.242676
141,1.16304e-34,0.0731736,0.105197,9.87774,1.50591,0.275763,7.14478,3.93774,-0.244385
142,1.164e-34,0.0484745,0.0840489,9.87304,1.61683,0.180363,-7.49292,3.93896,-0.244385
143,1.16495e-34,0.0520653,0.0827083,9.88591,1.48733,0.182437,4.41675,3.93799,-0.241211
144,1.16591e-34,0.0658194,0.0729454,9.90657,1.59788,0.312148,7.92749,3.94067,-0.247803
145,1.16687e-34,0.047688,0.0875007,9.89501,1.55115,0.16452,-5.02808,3.93945,-0.240479
146,1.16782e-34,0.051,0.080677,9.899,1.45489,0.240108,4.31152,3.93823,-0.247314
147,1.16878e-34,0.0542366,0.101661,9.90571,1.58073,0.186805,-0.521729,3.94336,-0.24585
148,1.16974e-34,0.092253,0.0927321,9.9117,1.5825,0.206041,0.00463867,3.94214,-0.243896
149,1.17069e-34,0.0851686,0.0941242,9.84567,1.57949,0.230618,-6.48022,3.9353,-0.246338
150,1.17165e-34,0.0591254,0.103909,9.89293,1.55806,0.211599,0.219727,3.93823,-0.240723
151,1.17261e-34,0.0532097,0.0952258,9.8933,1.55026,0.290888,-6.23486,3.93994,-0.247803
152,1.17356e-34,0.0546549,0.101299,9.89864,1.4675,0.144503,0.338379,3.93604,-0.239746
153,1.17452e-34,0.0691033,0.096921,9.87693,1.5106,0.2356,6.19678,3.94067,-0.244385
154,1.17548e-34,0.0538251,0.0776441,9.88682,1.48186,0.326889,1.0835,3.92822,-0.243408
155,1.17643e-34,0.0385756,0.0668076,9.87808,1.53848,0.236816,0.322266,3.93994,-0.239014
156,1.17739e-34,0.0560389,0.0607338,9.89867,1.67463,0.243924,-4.81763,3.93896,-0.248291
157,1.17835e-34,0.0560059,0.0781491,9.91089,1.73607,0.13249,1.99341,3.9458,-0.244629
158,1.1793e-34,0.0668066,0.0714139,9.91128,1.7816,0.0349378,3.99634,3.93872,-0.247314
159,1.18026e-34,0.0709439,0.0974368,9.85539,1.75852,0.0154966,-6.49609,3.93896,-0.24292
160,1.18122e-34,0.0522814,0.104877,9.87893,1.63859,0.237213,-2.82227,3.9375,-0.245361
161,1.18217e-34,0.0480331,0.0866532,9.91452,1.60008,0.13961,-2.62158,3.94458,-0.248291
162,1.18313e-34,0.0643824,0.0890473,9.87607,1.62513,0.202647,-1.98877,3.94214,-0.243652
163,1.18409e-34,0.0712092,0.0654265,9.87527,1.81997,0.150586,3.62378,3.94238,-0.247803
164,1.18504e-34,0.0674728,0.0641038,9.87167,1.60051,0.152482,-1.8042,3.92969,-0.243408
165,1.186e-34,0.0528884,0.0865709,9.86712,1.51527,0.18423,-5.76147,3.93872,-0.245361
166,1.18696e-34,0.0415877,0.0938428,9.84495,1.65932,0.13906,5.93652,3.93896,-0.243896
167,1.18791e-34,0.0537398,0.0708143,9.90281,1.64395,0.0880617,6.44897,3.94824,-0.242432
168,1.18887e-34,0.0628239,0.080363,9.89887,1.65928,0.12501,3.06738,3.93506,-0.247803
169,1.18982e-34,0.0568396,0.054999,9.89081,1.63286,0.104762,-4.97461,3.93872,-0.242676
170,1.19078e-34,0.0552323,0.0886036,9.89316,1.60181,0.135704,-5.97607,3.94238,-0.248291
171,1.19174e-34,0.0591226,0.101821,9.84871,1.66373,0.0667635,1.11084,3.93872,-0.24707
172,1.19269e-34,0.0291012,0.0858829,9.88419,1.66344,0.260522,3.94263,3.93945,-0.245117
173,1.19365e-34,0.0783502,0.0824152,9.84609,1.63009,0.171231,3.48633,3.93555,-0.250732
174,1.19461e-34,0.0615335,0.086234,9.87712,1.6826,0.175765,3.48633,3.93555,-0.240234
175,1.19556e-34,0.073659,0.0610774,9.88015,1.72568,0.225277,6.06567,3.92944,-0.246826
176,1.19652e-34,0.0608238,0.083352,9.86824,1.65663,0.235395,-7.3396,3.94238,-0.239258
177,1.19748e-34,0.0552632,0.0973334,9.88052,1.67712,0.11716,5.72217,3.94238,-0.248291
178,1.19843e-34,0.0696636,0.0898984,9.86998,1.72645,0.119081,3.20874,3.93945,-0.243896
179,1.19939e-34,0.0638547,0.081885,9.87773,1.6557,0.0830157,7.82642,3.93799,-0.241943
180,1.20035e-34,0.0415797,0.0754955,9.88169,1.70511,0.12971,-5.08252,3.94116,-0.248291
181,1.2013e-34,0.0357869,0.0810963,9.86684,1.6046,0.285855,-2.87817,3.94019,-0.240723
182,1.20226e-34,0.0539804,0.0887998,9.87215,1.69861,0.131068,-1.51416,3.94019,-0.248291
183,1.20322e-34,0.0593372,0.105896,9.8715,1.61586,0.238609,-3.4917,3.93604,-0.248535
184,1.20417e-34,0.0755442,0.102843,9.8791,1.59187,0.108707,-1.82812,3.9397,-0.24292
185,1.20513e-34,0.0784839,0.0841994,9.90571,1.62887,0.23469,0.217773,3.93994,-0.244873
186,1.20609e-34,0.0527593,0.0909663,9.8724,1.60568,0.193387,5.9375,3.93848,-0.242676
187,1.20704e-34,0.0541127,0.0748452,9.87323,1.71544,0.174382,6.98706,3.93799,-0.247803
188,1.208e-34,0.0578569,0.0899072,9.86897,1.70967,0.063011,-7.91162,3.93823,-0.237549
189,1.20896e-34,0.0338115,0.0783308,9.88226,1.58778,-0.00964376,6.14648,3.93896,-0.246338
190,1.20991e-34,0.0503167,0.0898925,9.88196,1.63104,0.0808385,0.111816,3.94067,-0.243408
191,1.21087e-34,0.0391458,0.0841189,9.86576,1.76894,0.126073,1.04883,3.94604,-0.241211
192,1.21183e-34,0.0644097,0.0778516,9.8791,1.68206,0.112062,-1.8313,3.94165,-0.248291
193,1.21278e-34,0.0591841,0.101932,9.8707,1.70314,0.0793273,3.09961,3.94238,-0.242188
194,1.21374e-34,0.0736814,0.0927008,9.86754,1.54244,0.0535081,-5.53467,3.93433,-0.244873
195,1.2147e-34,0.0714763,0.086402,9.87349,1.62448,0.0919807,5.93018,3.94385,-0.24585
196,1.21565e-34,0.0508941,0.0741632,9.8686,1.68273,0.172435,-4.01538,3.93604,-0.24292
197,1.21661e-34,0.0414544,0.0699626,9.87986,1.59985,0.0833103,4.46411,3.94214,-0.246826
198,1.21757e-34,0.0610074,0.0558709,9.88804,1.60925,0.215736,-5.90503,3.93652,-0.238281
199,1.21852e-34,0.0725484,0.0861156,9.82623,1.66099,0.125779,3.20923,3.93872,-0.249756
200,1.21948e-34,0.0740502,0.101097,9.89892,1.73832,0.152238,5.84692,3.93579,-0.241943
201,1.22044e-34,0.0773484,0.0839327,9.87238,1.67393,0.112049,0.6875,3.94165,-0.244873
202,1.22139e-34,0.0677736,0.0740735,9.88208,1.68553,0.14084,5.92969,3.94409,-0.24292
203,1.22235e-34,0.0767642,0.0799228,9.88011,1.71546,0.17182,-2.72046,3.93994,-0.242188
204,1.22331e-34,0.0692104,0.0744409,9.86395,1.63129,0.110986,2.20801,3.94214,-0.249268
205,1.22426e-34,0.0433819,0.0797679,9.87653,1.65476,0.120412,6.23389,3.9209,-0.241699
206,1.22522e-34,0.0361159,0.0930961,9.87775,1.76244,0.101432,-1.30566,3.94116,-0.247803
207,1.22617e-34,0.043582,0.104582,9.8809,1.58683,0.0560696,0.290283,3.93286,-0.247559
208,1.22713e-34,0.0686642,0.0869094,9.88574,1.61956,0.0746143,-3.98071,3.94092,-0.244873
209,1.22809e-34,0.0590114,0.0832245,9.90983,1.6255,0.206246,-3.51025,3.94214,-0.246826
210,1.22904e-34,0.0554989,0.0813922,9.86957,1.57237,0.100907,-5.5354,3.93481,-0.241699
211,1.23e-34,0.059198,0.10629,9.87765,1.74124,0.110615,-2.08984,3.93921,-0.249268
212,1.23096e-34,0.057373,0.112836,9.89016,1.55099,0.106094,6.56421,3.94043,-0.242188
213,1.23191e-34,0.0437133,0.0832293,9.86615,1.64687,0.197102,-2.03857,3.94019,-0.247314
214,1.23287e-34,0.0488364,0.0833515,9.89379,1.60699,0.127687,1.16406,3.93823,-0.243896
215,1.23383e-34,0.0488051,0.08604,9.86625,1.61188,0.126355,7.09082,3.93896,-0.239502
216,1.23478e-34,0.0464726,0.0824687,9.89586,1.70429,0.205016,-0.990234,3.94067,-0.246338
217,1.23574e-34,0.0572392,0.0847673,9.89406,1.65483,0.144054,-5.84766,3.93286,-0.244141
218,1.2367e-34,0.081093,0.0992549,9.888,1.64816,0.134385,4.01392,3.93359,-0.244385
219,1.23765e-34,0.0735831,0.0893365,9.86476,1.70308,0.0737562,-5.08691,3.94434,-0.24585
220,1.23861e-34,0.0678975,0.0923432,9.87203,1.62817,0.126432,-7.9707,3.94336,-0.244385
221,1.23957e-34,0.0456255,0.0896859,9.87401,1.65138,0.141288,6.40723,3.94019,-0.247803
222,1.24052e-34,0.0505552,0.0760069,9.88587,1.71554,0.174177,-1.20166,3.94165,-0.236816
223,1.24148e-34,0.0411094,0.0728029,9.8788,1.7089,0.150074,5.41235,3.93896,-0.248291
224,1.24244e-34,0.0352379,0.062463,9.87579,1.61019,0.113317,-0.72583,3.93896,-0.240479
225,1.24339e-34,0.0612053,0.0958836,9.88518,1.69395,0.136191,2.31494,3.94067,-0.24585
226,1.24435e-34,0.0572627,0.0907145,9.88005,1.75627,0.126893,3.41821,3.93945,-0.243896
227,1.24531e-34,0.0496734,0.0935148,9.88182,1.69446,0.188546,-0.989746,3.94019,-0.244141
228,1.24626e-34,0.0787293,0.0864527,9.88612,1.66654,0.0240262,5.45508,3.94604,-0.247314
229,1.24722e-34,0.0729346,0.082546,9.87175,1.74389,0.236368,-2.0459,3.94556,-0.244141
230,1.24818e-34,0.0559351,0.0757791,9.89419,1.64303,0.122257,-0.0996094,3.94141,-0.24585
231,1.24913e-34,0.0446481,0.066717,9.88376,1.68884,0.109975,5.30518,3.94067,-0.244873
232,1.25009e-34,0.0597687,0.103744,9.88369,1.68411,0.115213,-4.81543,3.9375,-0.244385
233,1.25105e-34,0.0522727,0.0880229,9.85888,1.52984,0.103763,3.15747,3.93823,-0.249268
234,1.252e-34,0.0521684,0.100347,9.8694,1.62422,0.0457726,7.71606,3.94238,-0.241699
235,1.25296e-34,0.0663383,0.0907967,9.8903,1.61336,0.100818,-1.2522,3.94043,-0.249756
236,1.25392e-34,0.0605059,0.0591182,9.84623,1.52675,0.13377,-6.49658,3.93921,-0.244141
237,1.25487e-34,0.0533437,0.0955758,9.86082,1.63311,0.134475,0.838379,3.94653,-0.246338
238,1.25583e-34,0.0621634,0.0999526,9.86624,1.7086,0.25207,-6.05103,3.92798,-0.243408
239,1.25679e-34,0.0378741,0.0792463,9.87651,1.57082,0.0740764,5.17871,3.92578,-0.243164
240,1.25774e-34,0.0573045,0.0660727,9.89593,1.6661,0.133962,4.56812,3.94238,-0.246826
241,1.2587e-34,0.0429534,0.0961056,9.8924,1.62558,0.172666,2.52515,3.94019,-0.243652
242,1.25966e-34,0.073446,0.0787605,9.88084,1.64092,0.244104,4.56836,3.94238,-0.247803
243,1.26061e-34,0.0564825,0.0672339,9.8889,1.68401,0.11885,-4.29663,3.94189,-0.246338
244,1.26157e-34,0.0549081,0.0843753,9.85866,1.71393,0.152353,0.740967,3.94067,-0.244873
245,1.26253e-34,0.0452699,0.0835629,9.89364,1.68419,0.147973,6.92627,3.94458,-0.247314
246,1.26348e-34,0.0397602,0.0973966,9.89842,1.67112,0.154864,0.840332,3.94507,-0.242676
247,1.26444e-34,0.0539857,0.0831013,9.87011,1.72257,0.204184,4.93481,3.94287,-0.247314
248,1.26539e-34,0.0443967,0.0750272,9.87435,1.71851,0.121898,-6.65796,3.94214,-0.240723
249,1.26635e-34,0.0530217,0.0672092,9.88784,1.65679,0.178851,-4.76636,3.93994,-0.245361
250,1.26731e-34,0.0551391,0.0929105,9.87908,1.62384,0.157604,-3.97876,3.93945,-0.24585
251,1.26826e-34,0.0661573,0.104066,9.87856,1.61157,0.109296,-4.61938,3.94775,-0.241211
252,1.26922e-34,0.065639,0.0929551,9.90137,1.7426,0.102495,-5.35669,3.94995,-0.247803
253,1.27018e-34,0.0747403,0.0986885,9.89387,1.64464,0.107529,2.2085,3.94165,-0.23999
254,1.27113e-34,0.0854928,0.0944492,9.88146,1.67922,0.142313,3.3042,3.94629,-0.249268
255,1.27209e-34,0.0504294,0.0819788,9.86386,1.62763,0.0284574,-7.37378,3.93701,-0.243408
256,1.27305e-34,0.0651574,0.103889,9.88838,1.61549,0.125305,-2.70532,3.93677,-0.245361
257,1.274e-34,0.0573647,0.0791162,9.86432,1.72993,0.0656237,-1.32666,3.92554,-0.246338
258,1.27496e-34,0.0531856,0.0657417,9.87445,1.67906,0.100357,-4.82007,3.94092,-0.238281
259,1.27592e-34,0.0643169,0.0929356,9.89312,1.69643,0.18619,-1.87988,3.93896,-0.249268
260,1.27687e-34,0.0457741,0.0873127,9.87516,1.68744,0.107298,0.00927734,3.93872,-0.243652
261,1.27783e-34,0.0657926,0.0839216,9.87744,1.65819,-0.00646759,5.93091,3.94336,-0.244873
262,1.27879e-34,0.0326496,0.089986,9.89354,1.61052,0.112062,-5.06543,3.93604,-0.243896
263,1.27974e-34,0.0693476,0.0915869,9.86805,1.6983,0.0614742,1.00098,3.94238,-0.242676
264,1.2807e-34,0.0633589,0.0931566,9.91026,1.67973,0.170796,2.20557,3.94409,-0.248779
265,1.28166e-34,0.0482745,0.0664141,9.8844,1.59,0.0427245,7.24854,3.93872,-0.23999
266,1.28261e-34,0.0628652,0.0781831,9.88947,1.64285,0.105146,7.50049,3.94629,-0.247803
267,1.28357e-34,0.0697533,0.067508,9.8885,1.68275,0.133117,-2.30225,3.94092,-0.245361
268,1.28453e-34,0.0367158,0.0574302,9.85964,1.62243,0.126765,-1.37646,3.92383,-0.244385
269,1.28548e-34,0.0537371,0.100384,9.86452,1.64723,0.0520481,-1.83569,3.94507,-0.246338
270,1.28644e-34,0.0630523,0.102979,9.8479,1.56278,0.2471,-4.48853,3.93628,-0.240234
271,1.2874e-34,0.0531734,0.101878,9.87203,1.65775,0.0863456,-0.0437012,3.93872,-0.249268
272,1.28835e-34,0.0619094,0.0917378,9.88022,1.6576,0.0738458,-4.50415,3.93994,-0.243408
273,1.28931e-34,0.0503381,0.0761162,9.88134,1.62051,0.136678,6.72217,3.94019,-0.244873
274,1.29027e-34,0.058896,0.0624986,9.89344,1.68962,0.140801,-2.65308,3.93652,-0.247803
275,1.29122e-34,0.0485039,0.090691,9.86229,1.64828,0.0973341,5.74683,3.93188,-0.240723
276,1.29218e-34,0.058677,0.0685206,9.88415,1.67128,0.115162,-6.86182,3.93774,-0.250732
277,1.29314e-34,0.0494302,0.0742947,9.87652,1.62731,0.152725,2.99829,3.9397,-0.239746
278,1.29409e-34,0.0804838,0.0861846,9.92543,1.58813,0.0168798,-3.08667,3.93921,-0.244385
279,1.29505e-34,0.0675838,0.0845107,9.88354,1.66864,0.148486,-7.04736,3.92773,-0.24292
280,1.29601e-34,0.067766,0.0797256,9.83799,1.541,0.179914,3.49463,3.92969,-0.244873
281,1.29696e-34,0.0654401,0.0898602,9.86875,1.76031,0.147999,7.42041,3.93579,-0.249268
282,1.29792e-34,0.0667824,0.0868464,9.89482,1.70916,0.118799,-5.01025,3.93481,-0.242676
283,1.29888e-34,0.048589,0.088216,9.87813,1.54874,0.290337,3.43872,3.93188,-0.24585
284,1.29983e-34,0.0643372,0.0891681,9.88575,1.6076,0.145105,5.46289,3.94019,-0.242676
285,1.30079e-34,0.0475858,0.0946254,9.90012,1.60942,0.174535,-2.5144,3.94287,-0.244873
286,1.30174e-34,0.0602144,0.0881352,9.88241,1.65299,0.0816326,7.42139,3.93481,-0.245361
287,1.3027e-34,0.062008,0.0839315,9.87354,1.57223,0.0334522,-5.26587,3.9292,-0.240479
288,1.30366e-34,0.0751231,0.104737,9.8761,1.71113,0.0142927,-1.46143,3.93994,-0.24585
289,1.30461e-34,0.0450819,0.0761804,9.86709,1.61672,0.0660079,-4.64526,3.93604,-0.242676
290,1.30557e-34,0.0504848,0.0725513,9.86921,1.59912,0.105838,2.75073,3.93701,-0.247803
291,1.30653e-34,0.0466646,0.0808638,9.87073,1.69208,0.0722834,5.04272,3.94067,-0.244385
292,1.30748e-34,0.048012,0.079867,9.90034,1.69986,0.163598,7.26294,3.93652,-0.244873
293,1.30844e-34,0.0293363,0.0678846,9.87187,1.6899,0.150714,5.47827,3.93701,-0.246826
294,1.3094e-34,0.064201,0.0777731,9.86049,1.73562,0.141647,-7.5459,3.93945,-0.241455
295,1.31035e-34,0.0475026,0.0901574,9.88906,1.60609,0.153993,7.3501,3.94116,-0.248779
296,1.31131e-34,0.0711107,0.0839773,9.8806,1.62133,0.0422123,7.45898,3.93823,-0.241211
297,1.31227e-34,0.0691036,0.0745612,9.87576,1.56237,0.192517,-2.77148,3.93872,-0.241455
298,1.31322e-34,0.0502643,0.0703015,9.85054,1.61121,0.163035,5.51611,3.93994,-0.242432
299,1.31418e-34,0.0591037,0.0645973,9.87489,1.52246,0.147461,-4.29346,3.93945,-0.240234
300,1.31514e-34,0.0625245,0.0777104,9.87057,1.62643,0.211881,6.35181,3.94238,-0.249756
301,1.31609e-34,0.0678524,0.0874513,9.89758,1.67958,0.100741,-5.48169,3.93408,-0.240723
302,1.31705e-34,0.0567963,0.0921763,9.90101,1.66272,0.0789943,0.0595703,3.94043,-0.246338
303,1.31801e-34,0.0672991,0.0837698,9.90735,1.68152,0.131324,0.5354,3.93774,-0.246338
304,1.31896e-34,0.0452225,0.0831801,9.88539,1.67955,0.133911,-0.15625,3.94458,-0.244385
305,1.31992e-34,0.0453562,0.0863134,9.87416,1.52246,0.152072,-1.20166,3.94165,-0.248291
306,1.32088e-34,0.0555375,0.0778276,9.87698,1.61667,0.198203,-7.23022,3.93848,-0.242676
307,1.32183e-34,0.0353864,0.0857394,9.87276,1.67963,0.127328,-4.61157,3.94189,-0.248291
308,1.32279e-34,0.0459323,0.079448,9.88263,1.68951,0.125023,-0.623535,3.94092,-0.244141
309,1.32375e-34,0.0601694,0.0717071,9.87427,1.68511,0.160652,4.20386,3.94019,-0.244873
310,1.3247e-34,0.0450998,0.0686027,9.89296,1.69434,0.0959381,-2.28369,3.9353,-0.244873
311,1.32566e-34,0.0635679,0.0791405,9.88508,1.68749,0.0809922,4.94043,3.93872,-0.243408
312,1.32662e-34,0.0762611,0.0822831,9.87406,1.6557,0.161395,-2.71802,3.93799,-0.246826
313,1.32757e-34,0.0745755,0.0827942,9.85382,1.59085,0.211266,0.919189,3.93286,-0.243652
314,1.32853e-34,0.0653052,0.104877,9.86525,1.63365,0.118005,-1.20166,3.94165,-0.249268
315,1.32949e-34,0.0514184,0.0854008,9.9109,1.63921,0.140033,-0.0769043,3.93237,-0.243896
316,1.33044e-34,0.0570534,0.0831855,9.85432,1.68813,0.130402,-7.6499,3.93896,-0.243408
317,1.3314e-34,0.0404179,0.0811668,9.83986,1.72873,0.107093,-7.33936,3.94189,-0.249268
318,1.33236e-34,0.0489442,0.0770745,9.8753,1.58462,0.139572,1.31396,3.94385,-0.243164
319,1.33331e-34,0.0540755,0.0748747,9.89034,1.67484,0.105889,-2.75537,3.93506,-0.251709
320,1.33427e-34,0.0689748,0.0888758,9.87849,1.66487,0.0884459,2.91479,3.9314,-0.242676
321,1.33523e-34,0.0648623,0.0731092,9.88521,1.59693,0.0414054,-3.17554,3.93555,-0.24585
322,1.33618e-34,0.0467161,0.0902388,9.87675,1.72117,0.127072,-7.78687,3.93115,-0.246826
323,1.33714e-34,0.0612869,0.0866171,9.84974,1.6286,0.0861663,-2.14038,3.93774,-0.243652
324,1.33809e-34,0.0641507,0.0723323,9.87492,1.69653,0.155197,-1.98877,3.94189,-0.250244
325,1.33905e-34,0.06419,0.0796021,9.86534,1.65327,0.0951825,5.77832,3.9397,-0.239502
326,1.34001e-34,0.0551058,0.0880482,9.86847,1.59679,0.034528,-1.66919,3.93848,-0.245361
327,1.34096e-34,0.0342991,0.0764441,9.8731,1.6251,0.204837,-3.29883,3.94116,-0.244385
328,1.34192e-34,0.0447352,0.0653269,9.89258,1.73992,0.0536874,7.0564,3.93359,-0.246826
329,1.34288e-34,0.0572784,0.0666698,9.90376,1.6306,0.101023,2.22998,3.93359,-0.246338
330,1.34383e-34,0.0573448,0.0748341,9.88675,1.72663,0.176943,2.10815,3.93823,-0.240723
331,1.34479e-34,0.0646104,0.0885106,9.89137,1.70091,0.229657,-5.55371,3.94043,-0.24585
332,1.34575e-34,0.0398965,0.0710647,9.90936,1.65742,0.155504,1.26782,3.93921,-0.241211
333,1.3467e-34,0.0609908,0.0928651,9.83809,1.63647,0.0705416,0.37207,3.94189,-0.243896
334,1.34766e-34,0.0730355,0.0810435,9.87051,1.58795,0.115776,-7.59863,3.9397,-0.243408
335,1.34862e-34,0.05981,0.0869387,9.88849,1.58984,0.252441,3.68213,3.93799,-0.240723
336,1.34957e-34,0.0579666,0.0897324,9.8993,1.59978,0.233358,-0.592041,3.92554,-0.249756
337,1.35053e-34,0.0351539,0.0763419,9.89874,1.70152,0.0291618,0.686035,3.94263,-0.243164
338,1.35149e-34,0.0313632,0.0705885,9.86446,1.71006,0.159577,-2.77124,3.93872,-0.249268
339,1.35244e-34,0.0385073,0.0844552,9.91683,1.70632,0.025563,7.76514,3.94458,-0.243896
340,1.3534e-34,0.0589049,0.0856849,9.86193,1.64402,0.111781,1.4978,3.93213,-0.243896
341,1.35436e-34,0.0546981,0.0709491,9.88149,1.57013,0.135166,0.582764,3.94141,-0.247314
342,1.35531e-34,0.0674151,0.0890396,9.89511,1.6472,0.129096,5.35669,3.94116,-0.238281
343,1.35627e-34,0.0740797,0.0766541,9.91841,1.64968,0.0583492,5.0979,3.93848,-0.247803
344,1.35723e-34,0.045002,0.0845338,9.88654,1.57973,0.117288,-1.41162,3.94165,-0.244629
345,1.35818e-34,0.0554633,0.0708516,9.87504,1.66103,0.150637,-3.5896,3.93115,-0.24292
346,1.35914e-34,0.053539,0.0746828,9.89676,1.59674,0.244309,-1.01636,3.92896,-0.244873
347,1.3601e-34,0.0700836,0.0857984,9.87589,1.60704,0.0471046,7.68579,3.93359,-0.242188
348,1.36105e-34,0.0492181,0.0827242,9.90946,1.59638,0.12592,-7.28467,3.94019,-0.246826
349,1.36201e-34,0.0621626,0.0850396,9.89297,1.65063,0.0176482,1.84204,3.94141,-0.241699
350,1.36297e-34,0.0449298,0.0630229,9.88206,1.70996,0.142953,-4.18701,3.93848,-0.247803
351,1.36392e-34,0.0471577,0.0937609,9.89068,1.64848,0.210062,-6.9165,3.93945,-0.244385
352,1.36488e-34,0.0373966,0.0785819,9.89761,1.71335,0.0311085,-2.1936,3.93823,-0.243408
353,1.36584e-34,0.051977,0.078934,9.87765,1.68383,0.149843,-5.76123,3.93848,-0.248291
354,1.36679e-34,0.0404333,0.0676107,9.88425,1.63857,0.077816,0.377441,3.93799,-0.240234
355,1.36775e-34,0.0646552,0.0864501,9.8701,1.6607,0.119362,-6.10742,3.93115,-0.248779
356,1.36871e-34,0.0641022,0.0805154,9.87999,1.61362,0.168055,-7.84595,3.93726,-0.240967
357,1.36966e-34,0.061724,0.0687345,9.88851,1.79791,0.0813764,3.17114,3.93604,-0.245361
358,1.37062e-34,0.06243,0.0919856,9.87551,1.57233,0.141083,0.971436,3.93359,-0.244873
359,1.37158e-34,0.0615153,0.0805044,9.88237,1.63158,0.173306,-4.18994,3.94043,-0.243652
360,1.37253e-34,0.0429513,0.0855934,9.88752,1.69131,0.214622,-3.0874,3.9397,-0.248291
361,1.37349e-34,0.055308,0.081251,9.89736,1.67532,0.115776,3.6438,3.93579,-0.241455
362,1.37445e-34,0.0428628,0.0997253,9.88849,1.70793,0.110628,-6.02441,3.93921,-0.248779
363,1.3754e-34,0.0365541,0.0827219,9.89566,1.64579,0.152379,3.8811,3.94604,-0.245361
364,1.37636e-34,0.0383219,0.0890143,9.87694,1.57827,0.228197,7.82324,3.94043,-0.243896
365,1.37731e-34,0.0617433,0.0756055,9.87826,1.56114,0.173665,-1.88037,3.93945,-0.250732
366,1.37827e-34,0.0350562,0.068356,9.90301,1.63214,0.182271,6.16699,3.93188,-0.241211
367,1.37923e-34,0.0480152,0.0735123,9.8771,1.61782,0.118312,-5.97192,3.93896,-0.24585
368,1.38018e-34,0.0590897,0.0926417,9.88483,1.66078,0.260446,-0.361328,3.94116,-0.239258
369,1.38114e-34,0.0627054,0.104284,9.9079,1.73001,0.0623707,-6.29224,3.94336,-0.244873
370,1.3821e-34,0.0616029,0.0741254,9.8906,1.61792,0.228863,-4.08105,3.9375,-0.244873
371,1.38305e-34,0.0762171,0.0772364,9.88324,1.63229,0.0831438,-1.81079,3.93457,-0.239258
372,1.38401e-34,0.0785438,0.0968591,9.87248,1.63355,0.0753058,-7.28613,3.94116,-0.250732
373,1.38497e-34,0.0525195,0.0878679,9.86045,1.60286,0.110551,3.46802,3.94165,-0.239258
374,1.38592e-34,0.0555204,0.0765497,9.89828,1.53972,0.0512285,-4.81909,3.93994,-0.249268
375,1.38688e-34,0.0573328,0.0862527,9.89594,1.64057,0.0906488,-5.23486,3.9375,-0.244385
376,1.38784e-34,0.0643232,0.0862589,9.91273,1.66213,0.0951569,-0.601562,3.93286,-0.241455
377,1.38879e-34,0.0642461,0.078966,9.86762,1.66266,0.145348,-7.6499,3.93872,-0.246338
378,1.38975e-34,0.0582182,0.0725728,9.87021,1.6451,0.178224,4.46875,3.93848,-0.243652
379,1.39071e-34,0.0750038,0.09545,9.87945,1.69746,0.162497,4.10156,3.93823,-0.248779
380,1.39166e-34,0.0637626,0.10396,9.90086,1.61685,0.152456,-7.02002,3.93848,-0.243652
381,1.39262e-34,0.0579639,0.0887237,9.86749,1.65389,0.0666739,4.29126,3.92212,-0.244873
382,1.39358e-34,0.0612137,0.0838578,9.89022,1.64264,-0.000883691,-7.00391,3.93433,-0.244873
383,1.39453e-34,0.0611426,0.0903723,9.87694,1.6741,0.248612,-6.75781,3.93872,-0.242432
384,1.39549e-34,0.0481179,0.091754,9.88062,1.6338,0.0771757,2.31714,3.93921,-0.246826
385,1.39645e-34,0.0400903,0.0867771,9.91801,1.64748,0.11114,7.87817,3.93872,-0.243896
386,1.3974e-34,0.0488819,0.070019,9.87385,1.6827,0.151457,-3.80493,3.93506,-0.248779
387,1.39836e-34,0.0508353,0.0811562,9.89308,1.59546,0.128916,0.919678,3.93286,-0.243408
388,1.39932e-34,0.0561857,0.0877956,9.87817,1.64126,0.130376,5.20361,3.93799,-0.24585
389,1.40027e-34,0.0516793,0.06856,9.90571,1.62561,0.146155,3.45068,3.9231,-0.24585
390,1.40123e-34,0.0501217,0.0888906,9.87842,1.68147,0.202122,-2.82812,3.94238,-0.242188
391,1.40219e-34,0.0539665,0.095916,9.85041,1.68744,0.152968,0.42627,3.94067,-0.245361
392,1.40314e-34,0.062287,0.0732594,9.86366,1.56239,0.131529,0.95166,3.94019,-0.242188
393,1.4041e-34,0.048973,0.0761624,9.86187,1.63777,0.200534,4.75464,3.92871,-0.245361
394,1.40506e-34,0.0653669,0.0896802,9.88848,1.66943,0.134808,2.12451,3.93408,-0.244385
395,1.40601e-34,0.0557468,0.0816911,9.87285,1.66418,0.206604,5.85645,3.92847,-0.241699
396,1.40697e-34,0.053532,0.0862095,9.89468,1.65189,0.174228,-7.0188,3.9375,-0.251221
397,1.40793e-34,0.0679071,0.0808229,9.89549,1.70043,0.0222588,0.80835,3.93726,-0.239746
398,1.40888e-34,0.0688533,0.104296,9.86934,1.58232,0.130812,7.94287,3.93726,-0.24585
399,1.40984e-34,0.0661776,0.10317,9.88639,1.5971,0.23706,-1.18384,3.93652,-0.24292
400,1.4108e-34,0.0660628,0.0992633,9.8612,1.70888,0.134347,-1.12793,3.93433,-0.241943
401,1.41175e-34,0.0598089,0.0916563,9.88788,1.638,0.127661,-1.5647,3.93848,-0.248291
402,1.41271e-34,0.0561299,0.101327,9.8871,1.68659,0.195411,4.09912,3.94019,-0.242676
403,1.41366e-34,0.0500061,0.0874667,9.86841,1.6046,0.199945,1.68579,3.94019,-0.246338
404,1.41462e-34,0.0531647,0.0758094,9.87714,1.62282,-0.00452091,-3.19165,3.93921,-0.243164
405,1.41558e-34,0.0633007,0.06771,9.90582,1.60763,0.185626,-3.08862,3.94067,-0.241943
406,1.41653e-34,0.0456104,0.0886429,9.88361,1.69899,0.121616,-1.01929,3.93091,-0.247803
407,1.41749e-34,0.059993,0.0906002,9.90213,1.67294,0.0463105,0.324707,3.93823,-0.24292
408,1.41845e-34,0.0413736,0.0799981,9.87568,1.64308,0.116673,-7.9458,3.93286,-0.249756
409,1.4194e-34,0.0509657,0.100548,9.87759,1.68168,0.0873445,2.89209,3.94043,-0.241211
410,1.42036e-34,0.0426604,0.0775942,9.87821,1.61833,0.121437,-0.620117,3.93848,-0.246338
411,1.42132e-34,0.055063,0.0800331,9.90217,1.62348,0.138394,1.73926,3.93945,-0.242432
412,1.42227e-34,0.0712678,0.080963,9.89322,1.59892,0.239314,-3.81909,3.93774,-0.24585
413,1.42323e-34,0.0417034,0.0823741,9.89309,1.6255,0.150791,6.42432,3.93555,-0.247803
414,1.42419e-34,0.0474808,0.0935452,9.87381,1.67138,0.151713,-5.76099,3.93848,-0.240723
415,1.42514e-34,0.0634559,0.0913051,9.90565,1.65294,0.0235395,7.61694,3.93799,-0.248291
416,1.4261e-34,0.0597981,0.0862597,9.86771,1.67743,0.113061,-7.75293,3.9375,-0.244629
417,1.42706e-34,0.0464602,0.0813115,9.88124,1.63291,0.100408,-4.01709,3.93701,-0.244385
418,1.42801e-34,0.0418881,0.0640159,9.88685,1.64011,0.166518,1.57617,3.94409,-0.244385
419,1.42897e-34,0.0777368,0.101982,9.88531,1.65578,0.0718479,-7.15283,3.92822,-0.245117
420,1.42993e-34,0.06444,0.0824294,9.86881,1.55268,0.21954,-4.24023,3.93872,-0.247803
421,1.43088e-34,0.069611,0.0972465,9.88248,1.66195,0.173818,-4.6604,3.93921,-0.239746
422,1.43184e-34,0.0433192,0.0822513,9.88405,1.66956,0.0414182,1.79102,3.94019,-0.243408
423,1.4328e-34,0.0523392,0.0846292,9.88595,1.68398,0.0812996,4.18335,3.92456,-0.241455
424,1.43375e-34,0.0533076,0.0729869,9.91131,1.59992,0.108861,5.72168,3.94287,-0.245361
425,1.43471e-34,0.0699335,0.0745957,9.87466,1.65168,0.155965,-1.51562,3.94116,-0.247314
426,1.43567e-34,0.0678085,0.0763303,9.88574,1.63283,0.111524,-1.09766,3.94263,-0.241699
427,1.43662e-34,0.0649414,0.106011,9.88103,1.63483,0.101868,1.33984,3.93286,-0.247314
428,1.43758e-34,0.0619529,0.0763399,9.87509,1.78654,0.148665,-2.49536,3.93677,-0.243164
429,1.43854e-34,0.0646421,0.0653509,9.90413,1.66992,0.147359,7.36621,3.93701,-0.244385
430,1.43949e-34,0.060523,0.0993205,9.85292,1.68939,0.151201,-3.19531,3.94214,-0.244385
431,1.44045e-34,0.080982,0.0807971,9.90496,1.59838,0.192593,-4.86938,3.93872,-0.240723
432,1.44141e-34,0.0723379,0.0998926,9.88654,1.61272,0.161318,1.96338,3.93677,-0.24585
433,1.44236e-34,0.0490655,0.0734657,9.88753,1.71126,0.266183,-5.07935,3.93872,-0.242432
434,1.44332e-34,0.0549124,0.0867568,9.88989,1.57497,0.23478,-4.2124,3.92627,-0.244873
435,1.44428e-34,0.0541256,0.0792392,9.90195,1.58334,0.142364,5.8606,3.92554,-0.243896
436,1.44523e-34,0.0616495,0.0944879,9.88425,1.6661,0.119516,2.94629,3.93921,-0.244873
437,1.44619e-34,0.0757865,0.0870814,9.88353,1.67161,0.150458,5.62183,3.93896,-0.248779
438,1.44715e-34,0.0553064,0.0907981,9.88876,1.67999,0.222229,0.878906,3.92432,-0.243652
439,1.4481e-34,0.0582058,0.0769572,9.89234,1.62717,0.122334,5.43433,3.93042,-0.247314
440,1.44906e-34,0.0547597,0.0799172,9.86277,1.59984,0.0814789,0.899902,3.93945,-0.241211
441,1.45001e-34,0.0819261,0.0860422,9.89199,1.69044,0.122462,2.2041,3.94507,-0.24292
442,1.45097e-34,0.0611252,0.0712127,9.87711,1.60924,0.135704,-1.2854,3.93408,-0.243408
443,1.45193e-34,0.0541611,0.0866864,9.87746,1.64233,0.0504088,-7.10522,3.93188,-0.240234
444,1.45288e-34,0.0629311,0.081939,9.8838,1.69174,0.0761255,-4.4502,3.93872,-0.247314
445,1.45384e-34,0.0577546,0.095562,9.86595,1.68416,0.187445,-6.78955,3.9314,-0.242188
446,1.4548e-34,0.0669156,0.108115,9.87779,1.72317,0.155606,-7.04736,3.92773,-0.246338
447,1.45575e-34,0.0636595,0.0877502,9.90417,1.66229,0.258166,-4.74854,3.93457,-0.240967
448,1.45671e-34,0.0706953,0.0782773,9.88156,1.65091,0.0742813,0.602783,3.93433,-0.246338
449,1.45767e-34,0.0641001,0.0949741,9.85965,1.71859,0.0140878,-7.07373,3.9397,-0.244385
450,1.45862e-34,0.0562185,0.0856372,9.86639,1.61885,0.0431856,-7.86279,3.94092,-0.239746
451,1.45958e-34,0.0512003,0.106685,9.88801,1.57503,0.144118,3.43701,3.93335,-0.245361
452,1.46054e-34,0.0466151,0.0894749,9.89377,1.6211,0.216696,-4.67749,3.92065,-0.244629
453,1.46149e-34,0.0585374,0.0839017,9.906,1.6097,0.0768171,-2.66772,3.9397,-0.245361
454,1.46245e-34,0.0782624,0.0717188,9.88191,1.69687,0.168414,-5.53882,3.93726,-0.244873
455,1.46341e-34,0.0634508,0.0812741,9.89206,1.68239,0.203812,3.72925,3.94189,-0.240234
456,1.46436e-34,0.0544617,0.0845108,9.88245,1.60934,0.128199,-1.6499,3.93188,-0.247314
457,1.46532e-34,0.0645912,0.0680999,9.86272,1.62586,0.13491,-0.811768,3.93286,-0.245605
458,1.46628e-34,0.0610257,0.0801693,9.8671,1.64384,0.150945,7.45557,3.94067,-0.246338
459,1.46723e-34,0.0476894,0.075227,9.86412,1.65786,0.215902,7.08423,3.94385,-0.24292
460,1.46819e-34,0.0564772,0.0804443,9.8915,1.60509,0.0976927,-6.39404,3.94092,-0.246582
461,1.46915e-34,0.0433076,0.0709956,9.86506,1.69233,0.176738,1.96753,3.93384,-0.248779
462,1.4701e-34,0.0631541,0.0772045,9.88872,1.69966,0.122871,1.07935,3.93115,-0.241211
463,1.47106e-34,0.0635015,0.0921413,9.88545,1.63252,0.0817862,-5.87305,3.94385,-0.246826
464,1.47202e-34,0.0545796,0.0954957,9.85762,1.65155,0.0838098,-1.69482,3.92627,-0.246094
465,1.47297e-34,0.0769338,0.0707001,9.88662,1.64858,0.133501,1.68652,3.9397,-0.246826
466,1.47393e-34,0.0693455,0.0746337,9.89744,1.60778,0.135397,-4.64673,3.93701,-0.240967
467,1.47489e-34,0.0397487,0.0716019,9.89043,1.68478,0.130223,-6.91553,3.93848,-0.241699
468,1.47584e-34,0.0326382,0.0816798,9.87475,1.72986,0.166057,-0.450195,3.93701,-0.247314
469,1.4768e-34,0.0456602,0.0924742,9.87019,1.71275,0.0997162,5.75732,3.92407,-0.242676
470,1.47776e-34,0.0522539,0.0863521,9.89516,1.67427,0.115802,7.55591,3.94409,-0.250732
471,1.47871e-34,0.0667424,0.0933026,9.90763,1.69945,0.144669,3.93677,3.94385,-0.244873
472,1.47967e-34,0.0682682,0.0892308,9.88257,1.55317,0.229939,-6.18872,3.94434,-0.247803
473,1.48063e-34,0.0621846,0.0853627,9.89242,1.69097,0.203915,-7.91431,3.94019,-0.248291
474,1.48158e-34,0.0672638,0.0696538,9.8632,1.61487,0.0590664,4.43506,3.93213,-0.240723
475,1.48254e-34,0.0451413,0.0818478,9.87847,1.59285,0.223945,5.41016,3.94043,-0.247803
476,1.4835e-34,0.0633431,0.0883613,9.88916,1.61698,0.110679,7.50806,3.94092,-0.243896
477,1.48445e-34,0.0537588,0.0808548,9.88099,1.68168,0.125023,-5.53589,3.9353,-0.244873
478,1.48541e-34,0.0787493,0.0738342,9.88778,1.68083,0.178813,7.92944,3.93945,-0.24585
479,1.48637e-34,0.0598979,0.0542543,9.86966,1.56308,0.11862,-2.92969,3.93945,-0.243896
480,1.48732e-34,0.0843305,0.0876872,9.88858,1.61741,0.0310957,-1.9314,3.93823,-0.247314
481,1.48828e-34,0.0824606,0.0825689,9.85622,1.60245,0.127303,5.5647,3.94263,-0.243164
482,1.48923e-34,0.0768114,0.0954999,9.88257,1.64425,0.157451,-0.727783,3.94043,-0.244385
483,1.49019e-34,0.0585031,0.0934519,9.87347,1.53931,0.0833999,2.36597,3.94189,-0.245361
484,1.49115e-34,0.0464644,0.0774027,9.86836,1.66964,0.183987,-5.28784,3.93774,-0.246338
485,1.4921e-34,0.0297051,0.0851283,9.89339,1.64308,0.123333,-1.47144,3.94775,-0.24585
486,1.49306e-34,0.0588187,0.0831553,9.88121,1.65033,0.134167,3.36206,3.94214,-0.244141
487,1.49402e-34,0.0696743,0.0822285,9.87245,1.72215,0.0849112,-0.133545,3.93555,-0.244385
488,1.49497e-34,0.0769976,0.0890048,9.87935,1.60471,0.0576064,0.84668,3.94019,-0.242432
489,1.49593e-34,0.0598565,0.0835928,9.88749,1.70324,0.217157,5.95044,3.93677,-0.244385
490,1.49689e-34,0.0543374,0.0829849,9.87488,1.7098,0.0220539,-4.42407,3.92725,-0.246338
491,1.49784e-34,0.059762,0.0839947,9.86402,1.63403,0.106248,-5.05957,3.93213,-0.239502
492,1.4988e-34,0.060674,0.0659,9.86459,1.72771,0.128327,3.15601,3.93921,-0.247803
493,1.49976e-34,0.0609776,0.099749,9.91062,1.67699,0.212163,6.42432,3.93555,-0.243408
494,1.50071e-34,0.061938,0.0747459,9.88254,1.70663,0.131708,7.20947,3.93677,-0.244873
495,1.50167e-34,0.0470532,0.0775694,9.88053,1.64356,0.188239,-5.28882,3.93823,-0.243896
496,1.50263e-34,0.0396355,0.0805905,9.8693,1.71741,0.196077,-0.203857,3.94092,-0.243408
497,1.50358e-34,0.0702871,0.0767593,9.87213,1.67082,0.147179,-4.17432,3.93677,-0.245361
498,1.50454e-34,0.0666992,0.0845698,9.8696,1.62233,0.108476,-2.08911,3.93848,-0.241211
499,1.5055e-34,0.0550957,0.0855546,9.901,1.65878,0.12446,-1.19751,3.93872,-0.245361
500,1.50645e-34,0.0606646,0.0806042,9.85765,1.70534,0.135858,2.17993,3.93188,-0.243652
501,1.50741e-34,0.0621701,0.0894918,9.8956,1.63631,0.0635233,7.77393,3.93823,-0.24585
502,1.50837e-34,0.0539897,0.0651481,9.88929,1.57113,0.0911611,-3.08521,3.93823,-0.243896
503,1.50932e-34,0.0636144,0.0824236,9.87669,1.70499,0.0459519,4.25854,3.93848,-0.242676
504,1.51028e-34,0.0537933,0.077732,9.90515,1.64221,0.0272279,3.5769,3.93823,-0.246338
505,1.51124e-34,0.063682,0.0922931,9.89054,1.54746,0.12697,1.65259,3.93433,-0.240479
506,1.51219e-34,0.07225,0.092933,9.89289,1.68665,0.192619,-7.8457,3.93628,-0.244873
507,1.51315e-34,0.0515422,0.0781099,9.86532,1.65179,0.154608,7.06445,3.92773,-0.24585
508,1.51411e-34,0.0623774,0.0806846,9.85613,1.66239,0.211266,-7.47852,3.93652,-0.244385
509,1.51506e-34,0.0545508,0.0802421,9.87486,1.60924,0.0911354,-1.65234,3.93384,-0.249756
510,1.51602e-34,0.0470102,0.082023,9.8693,1.65545,0.204939,3.83618,3.94043,-0.243652
511,1.51698e-34,0.0498685,0.0693591,9.88225,1.61275,0.0297637,6.88184,3.93848,-0.247803
512,1.51793e-34,0.0518653,0.0765487,9.87795,1.65791,0.0678521,-5.97046,3.93799,-0.244385
513,1.51889e-34,0.0483543,0.0894709,9.88766,1.64169,0.095413,4.14868,3.94238,-0.243408
514,1.51985e-34,0.0574838,0.0840139,9.84256,1.67276,0.223945,0.0803223,3.93286,-0.246826
515,1.5208e-34,0.0609275,0.0976794,9.87439,1.6223,0.16849,5.95288,3.93481,-0.241455
516,1.52176e-34,0.0640112,0.0898483,9.86828,1.65278,0.203428,-5.05713,3.93018,-0.248291
517,1.52272e-34,0.0617559,0.0968177,9.90456,1.62351,0.0850136,3.31055,3.94141,-0.241211
518,1.52367e-34,0.0471945,0.0931729,9.88462,1.55947,0.0758181,0.218506,3.93921,-0.248779
519,1.52463e-34,0.0545387,0.101055,9.88422,1.61444,0.0212342,3.6438,3.93579,-0.244873
520,1.52558e-34,0.0480557,0.0893754,9.90435,1.69561,0.155606,2.73389,3.94116,-0.244873
521,1.52654e-34,0.0645082,0.0843867,9.87957,1.59423,0.0283293,-7.23828,3.94482,-0.246826
522,1.5275e-34,0.0690355,0.100133,9.85572,1.60512,-0.0120259,1.7876,3.94263,-0.243652
523,1.52845e-34,0.0503098,0.0954334,9.85276,1.68416,0.125792,3.65039,3.93091,-0.248291
524,1.52941e-34,0.0499018,0.0999863,9.88384,1.63485,0.0541741,4.48218,3.93677,-0.244141
525,1.53037e-34,0.0543989,0.0741657,9.86714,1.6106,0.0791992,-1.14453,3.93848,-0.244873
526,1.53132e-34,0.0463979,0.0701776,9.88817,1.61913,0.110935,-2.72363,3.94238,-0.243408
527,1.53228e-34,0.0628559,0.0758263,9.89153,1.71754,0.10717,-1.36182,3.94385,-0.238037
528,1.53324e-34,0.0453133,0.0948467,9.88715,1.58237,0.276326,0.981445,3.92578,-0.249268
529,1.53419e-34,0.0408298,0.094845,9.89321,1.62822,0.107964,7.85327,3.92603,-0.24292
530,1.53515e-34,0.0405942,0.0890147,9.87392,1.72051,0.132502,-5.16553,3.93262,-0.247803
531,1.53611e-34,0.0668086,0.0996639,9.84535,1.71013,0.110551,4.17065,3.93433,-0.242432
532,1.53706e-34,0.0491186,0.0897038,9.90378,1.5794,0.139802,-4.53442,3.93164,-0.24292
533,1.53802e-34,0.0732001,0.101104,9.87903,1.59308,0.113548,-4.45312,3.94116,-0.247803
534,1.53898e-34,0.0630952,0.0804409,9.88716,1.55069,0.135704,0.580811,3.94287,-0.241211
535,1.53993e-34,0.0613302,0.086164,9.85373,1.57935,0.171359,5.19678,3.94287,-0.248291
536,1.54089e-34,0.0575291,0.0968272,9.87473,1.63158,0.143645,6.98291,3.94092,-0.243408
537,1.54185e-34,0.0640218,0.0885185,9.89462,1.712,0.11885,-4.74854,3.93457,-0.245361
538,1.5428e-34,0.0304946,0.0738197,9.86519,1.69359,0.164059,-7.93701,3.92603,-0.244873
539,1.54376e-34,0.0621596,0.0977711,9.87182,1.69694,0.222741,6.50488,3.94556,-0.241699
540,1.54472e-34,0.0788598,0.104968,9.87291,1.57643,0.169054,5.93652,3.93896,-0.24585
541,1.54567e-34,0.0572922,0.101045,9.91443,1.59023,0.195411,5.25635,3.93774,-0.244629
542,1.54663e-34,0.0518798,0.0878226,9.8681,1.60791,0.0836561,-7.63013,3.93237,-0.245361
543,1.54759e-34,0.0434943,0.0768833,9.87556,1.69103,0.175765,7.23853,3.94604,-0.243408
544,1.54854e-34,0.0531497,0.110848,9.90657,1.65778,0.262034,7.63867,3.92993,-0.24585
545,1.5495e-34,0.0687686,0.0860356,9.87334,1.65012,0.132631,4.59497,3.93042,-0.249756
546,1.55046e-34,0.0668745,0.0950023,9.88165,1.62369,0.171539,7.92163,3.94531,-0.240234
547,1.55141e-34,0.0411144,0.0971494,9.87221,1.69121,0.165622,5.24976,3.94263,-0.247314
548,1.55237e-34,0.0660133,0.0798472,9.8729,1.59221,0.196384,-0.550293,3.93359,-0.242188
549,1.55333e-34,0.0654977,0.0792702,9.86245,1.64822,0.131503,6.25342,3.9375,-0.244385
550,1.55428e-34,0.0486715,0.0831869,9.88241,1.62248,0.0841428,-3.40088,3.93872,-0.244873
551,1.55524e-34,0.06181,0.08456,9.8383,1.65294,0.194796,4.5874,3.93628,-0.245605
552,1.5562e-34,0.0532954,0.0718676,9.86238,1.69464,0.179607,3.14819,3.94507,-0.247803
553,1.55715e-34,0.0530455,0.075627,9.88778,1.61887,0.118261,6.59302,3.927,-0.241699
554,1.55811e-34,0.0664231,0.0983123,9.87618,1.6867,0.164546,1.63574,3.93848,-0.247314
555,1.55907e-34,0.0597453,0.0803357,9.87331,1.61459,0.250046,-5.86597,3.93848,-0.241943
556,1.56002e-34,0.068529,0.0823641,9.88818,1.6858,0.122001,-2.61353,3.93848,-0.243408
557,1.56098e-34,0.0504163,0.0905394,9.88355,1.64643,0.0557622,3.73169,3.94043,-0.247314
558,1.56194e-34,0.0548067,0.0673743,9.87409,1.66472,0.131862,-0.724365,3.93799,-0.241211
559,1.56289e-34,0.0771291,0.0759417,9.87498,1.58693,0.107503,1.53125,3.93848,-0.247803
560,1.56385e-34,0.0642235,0.082405,9.85795,1.63657,0.187701,-3.90869,3.93457,-0.242432
561,1.5648e-34,0.0529695,0.0945575,9.88606,1.61818,0.191774,7.61304,3.94092,-0.243896
562,1.56576e-34,0.05842,0.0890495,9.85759,1.64528,0.0839891,5.25049,3.94214,-0.241943
563,1.56672e-34,0.0590761,0.0809227,9.89042,1.74064,0.232372,7.40234,3.94141,-0.242188
564,1.56767e-34,0.0615448,0.100306,9.87886,1.67458,0.143824,-1.41138,3.94165,-0.247803
565,1.56863e-34,0.0536196,0.0968582,9.887,1.65245,0.155504,0.341553,3.93359,-0.239746
566,1.56959e-34,0.0844857,0.100409,9.89261,1.63155,0.200022,-6.23706,3.94116,-0.249268
567,1.57054e-34,0.0525458,0.0832138,9.87468,1.64159,0.132195,-4.61035,3.94092,-0.243896
568,1.5715e-34,0.0506169,0.0871483,9.87257,1.69802,0.155735,3.573,3.94116,-0.242432
569,1.57246e-34,0.0659822,0.08178,9.91444,1.66334,0.134654,3.78735,3.93774,-0.250732
570,1.57341e-34,0.0463154,0.087353,9.87685,1.66201,0.116545,-2.63452,3.92285,-0.241943
571,1.57437e-34,0.0563926,0.0650713,9.86368,1.72847,0.044953,1.99927,3.94116,-0.249756
572,1.57533e-34,0.0525093,0.0691179,9.88902,1.58398,0.0229504,-6.89551,3.93188,-0.249023
573,1.57628e-34,0.0527085,0.0731961,9.85946,1.64543,0.142313,-6.33789,3.93823,-0.24585
574,1.57724e-34,0.074819,0.0916141,9.88882,1.68473,0.110833,-0.437988,3.92822,-0.247803
575,1.5782e-34,0.0579055,0.083901,9.87714,1.69953,0.110244,5.7522,3.92798,-0.241699
576,1.57915e-34,0.0558903,0.0869952,9.88072,1.62192,0.100638,-0.861816,3.93115,-0.247803
577,1.58011e-34,0.0330291,0.0876589,9.91584,1.65015,0.230221,1.25952,3.94507,-0.243652
578,1.58107e-34,0.064397,0.0784023,9.87122,1.56111,0.159039,7.12085,3.92456,-0.249756
579,1.58202e-34,0.0666555,0.0740235,9.91498,1.69118,0.126867,-3.24316,3.93848,-0.249268
580,1.58298e-34,0.0676802,0.0793036,9.8588,1.58363,0.0810947,4.64355,3.93311,-0.245361
581,1.58394e-34,0.0558569,0.0764292,9.88189,1.69597,0.0425452,5.99023,3.93823,-0.248291
582,1.58489e-34,0.0469383,0.0859975,9.87709,1.67415,0.102329,-2.56274,3.9397,-0.242188
583,1.58585e-34,0.0530878,0.0712758,9.88879,1.6085,0.185959,-3.08887,3.94116,-0.247803
584,1.58681e-34,0.0531266,0.0788214,9.88619,1.63657,0.167107,-4.43188,3.93311,-0.245117
585,1.58776e-34,0.0511818,0.0825417,9.88227,1.63818,0.161293,3.4917,3.93164,-0.24585
586,1.58872e-34,0.0720182,0.0995379,9.86185,1.62561,0.193054,2.75269,3.93506,-0.246338
587,1.58968e-34,0.048053,0.0713389,9.88815,1.75352,0.196615,7.5083,3.94043,-0.241455
588,1.59063e-34,0.0543753,0.09889,9.89573,1.64285,0.0834256,-4.12134,3.93652,-0.247314
589,1.59159e-34,0.0604993,0.0788682,9.89712,1.60596,0.156759,-7.34302,3.94434,-0.243164
590,1.59255e-34,0.0581964,0.0714829,9.89292,1.63091,0.0705928,7.72095,3.93848,-0.250244
591,1.5935e-34,0.0715375,0.0895146,9.89077,1.641,0.157297,-5.50049,3.9397,-0.241455
592,1.59446e-34,0.0684786,0.0733681,9.90263,1.60985,0.159269,4.88696,3.93945,-0.248047
593,1.59542e-34,0.0525185,0.082784,9.88296,1.74279,0.0593482,-0.811768,3.93286,-0.248779
594,1.59637e-34,0.0596404,0.0794395,9.88539,1.589,0.169899,1.64966,3.93628,-0.242188
595,1.59733e-34,0.0509286,0.100879,9.88468,1.64356,0.0588871,-7.75854,3.94141,-0.250244
596,1.59829e-34,0.0515883,0.0780461,9.87721,1.62366,0.124434,-1.51685,3.94214,-0.241943
597,1.59924e-34,0.0626518,0.0758416,9.86469,1.5438,0.169694,1.73096,3.9458,-0.246582
598,1.6002e-34,0.0460006,0.0927067,9.88122,1.6201,0.169925,0.27124,3.93896,-0.246338
599,1.60115e-34,0.0651601,0.0719988,9.8699,1.65763,0.112242,-0.366943,3.94507,-0.243652
600,1.60211e-34,0.0522799,0.0770147,9.88574,1.56324,0.104737,3.07349,3.93066,-0.248291
601,1.60307e-34,0.0636559,0.0854565,9.85376,1.66974,0.125382,3.78125,3.94263,-0.242676
602,1.60402e-34,0.062652,0.072866,9.87969,1.59223,0.0979744,3.36646,3.93872,-0.247314
603,1.60498e-34,0.0511642,0.0797619,9.89216,1.61795,0.202839,-1.1814,3.93457,-0.243896
604,1.60594e-34,0.0437496,0.082885,9.89566,1.70993,0.0512797,-2.12158,3.93213,-0.244385
605,1.60689e-34,0.0302525,0.0745872,9.89341,1.6262,0.141006,3.26221,3.93823,-0.250732
606,1.60785e-34,0.0774105,0.0680027,9.88587,1.64013,0.161908,1.49658,3.93311,-0.242188
607,1.60881e-34,0.0617938,0.0885065,9.86637,1.73465,0.19372,-5.27002,3.93213,-0.249756
608,1.60976e-34,0.0556349,0.0821094,9.87873,1.62358,0.0192107,4.69287,3.93579,-0.241455
609,1.61072e-34,0.0527308,0.0891745,9.84989,1.56997,0.0556597,-4.39722,3.93848,-0.244385
610,1.61168e-34,0.0427336,0.0938927,9.88674,1.66913,0.165468,0.213379,3.94312,-0.243896
611,1.61263e-34,0.0514139,0.0873397,9.87887,1.64874,0.129915,-3.82446,3.94165,-0.240967
612,1.61359e-34,0.0604574,0.0870795,9.86451,1.73426,0.183757,7.51245,3.9375,-0.247803
613,1.61455e-34,0.0681915,0.072854,9.89114,1.66152,0.16096,-6.32275,3.93506,-0.239746
614,1.6155e-34,0.0378888,0.0889041,9.87399,1.67891,0.0161626,1.99829,3.94214,-0.248291
615,1.61646e-34,0.0506729,0.0860034,9.85452,1.61992,0.0867554,-1.51514,3.94067,-0.246826
616,1.61742e-34,0.0833041,0.0959514,9.8925,1.72171,0.0999211,-6.34741,3.94556,-0.24292
617,1.61837e-34,0.0562926,0.100061,9.87134,1.57159,0.182194,-0.816895,3.93677,-0.246338
618,1.61933e-34,0.0689677,0.0744253,9.89968,1.57448,0.106453,1.52881,3.93994,-0.244141
619,1.62029e-34,0.0595818,0.0774011,9.88684,1.67804,0.163419,-0.0300293,3.93701,-0.247314
620,1.62124e-34,0.0737069,0.0714057,9.88452,1.62922,0.119695,-6.02319,3.93823,-0.239014
621,1.6222e-34,0.0486393,0.0835381,9.88248,1.56303,0.156785,5.58887,3.93262,-0.243408
622,1.62316e-34,0.0405126,0.0800695,9.88913,1.72048,0.0783796,3.17017,3.93701,-0.24585
623,1.62411e-34,0.0580167,0.0880443,9.84738,1.53755,0.0706441,3.41821,3.93945,-0.243652
624,1.62507e-34,0.0389114,0.0825769,9.86163,1.67089,-0.00121668,-1.81348,3.93652,-0.246826
625,1.62603e-34,0.0513574,0.0780458,9.8572,1.69968,0.111729,3.3125,3.93994,-0.241455
626,1.62698e-34,0.0718675,0.0938721,9.86644,1.64986,0.100792,2.94263,3.94214,-0.24292
627,1.62794e-34,0.0669582,0.0805539,9.88359,1.66662,0.166493,-5.91821,3.93823,-0.24585
628,1.6289e-34,0.0434893,0.0861846,9.87515,1.57986,0.117825,-1.61816,3.9397,-0.24585
629,1.62985e-34,0.0598813,0.097437,9.87607,1.66777,0.185473,-5.00049,3.927,-0.247314
630,1.63081e-34,0.0526785,0.0743033,9.88916,1.67297,0.21142,-7.31934,3.93481,-0.244629
631,1.63177e-34,0.0674716,0.0735534,9.86196,1.69156,0.132912,-2.51709,3.94482,-0.248779
632,1.63272e-34,0.0826714,0.0968113,9.88112,1.68811,0.0870628,2.80737,3.93384,-0.241455
633,1.63368e-34,0.0579783,0.0817892,9.87987,1.65898,0.0316848,-1.17554,3.93066,-0.244873
634,1.63464e-34,0.0583686,0.0981957,9.88695,1.62466,0.122154,3.52539,3.9375,-0.24585
635,1.63559e-34,0.0644492,0.0756643,9.87229,1.63706,0.222972,-2.54712,3.93604,-0.240479
636,1.63655e-34,0.0522542,0.0967245,9.86929,1.59369,0.204888,-2.19409,3.93848,-0.251221
637,1.6375e-34,0.0607777,0.0900829,9.88892,1.59718,0.257756,1.39648,3.92969,-0.239258
638,1.63846e-34,0.0598404,0.0860014,9.88096,1.60724,0.212368,0.337891,3.93652,-0.24585
639,1.63942e-34,0.0486797,0.0861002,9.87561,1.67348,0.104737,-7.33545,3.93896,-0.245361
640,1.64037e-34,0.0659631,0.077786,9.89594,1.69128,0.153788,6.41064,3.93774,-0.242432
641,1.64133e-34,0.0736896,0.0777922,9.8593,1.67865,0.0663409,-4.9292,3.94385,-0.249268
642,1.64229e-34,0.0588355,0.0984049,9.9119,1.65578,0.141928,3.30591,3.94482,-0.23877
643,1.64324e-34,0.0418162,0.0921034,9.9094,1.61731,0.0911354,-1.72192,3.93872,-0.248291
644,1.6442e-34,0.0601203,0.0766445,9.84931,1.66613,0.134116,1.89771,3.93872,-0.240967
645,1.64516e-34,0.0496303,0.0735849,9.89453,1.64346,0.228786,1.57935,3.94165,-0.243408
646,1.64611e-34,0.0563766,0.102652,9.87742,1.67568,0.232654,-6.15771,3.92944,-0.243896
647,1.64707e-34,0.0428305,0.0868101,9.86344,1.68326,0.0328375,-2.19531,3.93945,-0.244141
648,1.64803e-34,0.0550912,0.0855552,9.89345,1.57499,0.0324276,3.01294,3.93677,-0.247314
649,1.64898e-34,0.0677477,0.0805975,9.87278,1.67012,0.0176226,5.84741,3.9353,-0.241211
650,1.64994e-34,0.0391207,0.0658632,9.88448,1.71147,0.0785588,5.06885,3.9292,-0.246826
651,1.6509e-34,0.0415604,0.0908946,9.89944,1.6356,0.183833,-6.18921,3.94482,-0.244873
652,1.65185e-34,0.0726694,0.0845347,9.86586,1.63314,0.134603,-4.08569,3.94092,-0.243896
653,1.65281e-34,0.0578054,0.083074,9.86075,1.66259,0.0680314,-1.09717,3.94214,-0.248291
654,1.65377e-34,0.0644032,0.0816335,9.8855,1.62556,0.100741,-4.24536,3.94263,-0.240234
655,1.65472e-34,0.0585986,0.0735494,9.86483,1.67712,0.106043,-4.55469,3.93872,-0.24585
656,1.65568e-34,0.0478365,0.0911375,9.88642,1.65258,0.100177,-7.37183,3.93506,-0.243652
657,1.65664e-34,0.0601355,0.0894928,9.889,1.6503,0.220077,-7.65137,3.93994,-0.244873
658,1.65759e-34,0.044609,0.0757669,9.87657,1.71441,0.213546,4.62549,3.93872,-0.244873
659,1.65855e-34,0.036693,0.118234,9.90346,1.66528,0.167184,4.15015,3.94141,-0.243896
660,1.65951e-34,0.0346952,0.0825946,9.89655,1.61423,0.149075,5.99072,3.93774,-0.244873
661,1.66046e-34,0.04497,0.0984746,9.85736,1.62812,0.176277,0.0634766,3.9375,-0.243652
662,1.66142e-34,0.0453135,0.0791968,9.87379,1.717,0.118005,2.2124,3.93872,-0.247314
663,1.66238e-34,0.0564714,0.085548,9.88033,1.54631,0.132041,-7.02002,3.93848,-0.244385
664,1.66333e-34,0.0526235,0.0846897,9.8715,1.60455,0.142492,4.32983,3.93262,-0.244873
665,1.66429e-34,0.0459461,0.0720274,9.86675,1.62054,0.155222,7.76782,3.94263,-0.249268
666,1.66525e-34,0.0544623,0.0787952,9.90877,1.68224,0.114854,2.52466,3.94067,-0.241211
667,1.6662e-34,0.055315,0.0948361,9.88985,1.61587,0.110705,3.77808,3.94507,-0.24585
668,1.66716e-34,0.0554499,0.101447,9.88172,1.66567,0.153967,1.91333,3.93506,-0.243408
669,1.66812e-34,0.0634965,0.0835653,9.87394,1.69131,0.176892,4.8606,3.92822,-0.243896
670,1.66907e-34,0.0674015,0.0892961,9.87493,1.59846,0.0909305,-5.53101,3.9314,-0.243896
671,1.67003e-34,0.0500432,0.0849561,9.8836,1.70598,0.11301,-3.27588,3.93164,-0.242188
672,1.67099e-34,0.0801274,0.065158,9.87081,1.6535,0.136216,-7.70264,3.93872,-0.248779
673,1.67194e-34,0.0483961,0.0945963,9.88057,1.60645,0.0806336,6.95459,3.93115,-0.239258
674,1.6729e-34,0.0480099,0.0914849,9.88143,1.60645,0.074563,1.65918,3.92944,-0.24585
675,1.67386e-34,0.0456025,0.0865019,9.86808,1.67963,0.175201,-2.22754,3.93262,-0.243408
676,1.67481e-34,0.0448446,0.0915259,9.9066,1.66201,0.148665,1.05713,3.9397,-0.24292
677,1.67577e-34,0.0606126,0.0742389,9.88213,1.66995,0.115392,-4.06226,3.9314,-0.249756
678,1.67672e-34,0.0605425,0.0714777,9.86254,1.69781,0.126176,4.62622,3.93823,-0.240234
679,1.67768e-34,0.0433743,0.100703,9.86165,1.66864,0.148281,3.94263,3.93945,-0.248291
680,1.67864e-34,0.0491867,0.0913129,9.90449,1.64489,0.111755,2.16162,3.9375,-0.244141
681,1.67959e-34,0.0508737,0.0908804,9.88822,1.62271,0.210856,-4.08228,3.93848,-0.243408
682,1.68055e-34,0.0501774,0.0678519,9.8605,1.56723,0.15243,-3.27808,3.93359,-0.245361
683,1.68151e-34,0.0581165,0.0682569,9.90578,1.65704,0.00343231,-1.23511,3.93579,-0.242188
684,1.68246e-34,0.0636317,0.0916494,9.86855,1.56582,0.119695,4.93774,3.94067,-0.247803
685,1.68342e-34,0.0681027,0.08826,9.87913,1.68731,0.221512,1.63696,3.93799,-0.240234
686,1.68438e-34,0.064771,0.0679463,9.87545,1.5961,0.273765,-0.729736,3.94189,-0.245361
687,1.68533e-34,0.0292517,0.100035,9.88684,1.68093,0.120028,-6.91968,3.94189,-0.24292
688,1.68629e-34,0.0586394,0.106971,9.87891,1.66636,0.242029,-0.778809,3.93921,-0.244873
689,1.68725e-34,0.0530897,0.0819812,9.89087,1.59164,0.160883,7.14038,3.94116,-0.247314
690,1.6882e-34,0.0572026,0.0725956,9.92255,1.64297,0.160371,-1.56421,3.93799,-0.241699
691,1.68916e-34,0.0664511,0.0695459,9.89382,1.75606,0.131196,6.32178,3.93408,-0.247314
692,1.69012e-34,0.0562245,0.097696,9.90983,1.61306,0.158322,4.46509,3.94092,-0.241455
693,1.69107e-34,0.0530375,0.0736744,9.89566,1.66738,0.18222,-1.74609,3.92554,-0.24292
694,1.69203e-34,0.038896,0.0836879,9.88122,1.66311,0.0938249,3.38843,3.93115,-0.243408
695,1.69299e-34,0.0573376,0.0886713,9.88092,1.70186,0.0213623,2.63208,3.93872,-0.243652
696,1.69394e-34,0.0500191,0.0915234,9.86964,1.66157,0.157732,4.96191,3.93066,-0.249756
697,1.6949e-34,0.0524956,0.0981631,9.84104,1.69684,0.0766634,-4.71118,3.93799,-0.239746
698,1.69586e-34,0.0467691,0.0783388,9.88375,1.67553,0.0964376,3.15161,3.94263,-0.247314
699,1.69681e-34,0.0570799,0.0673096,9.87313,1.59082,0.125356,1.05469,3.94165,-0.245361
700,1.69777e-34,0.0618593,0.0988236,9.88302,1.67976,0.174971,3.05151,3.93872,-0.243896
701,1.69873e-34,0.0665217,0.0861284,9.87262,1.68649,0.19121,-0.623291,3.94092,-0.246338
702,1.69968e-34,0.0578483,0.0626301,9.86022,1.78278,0.163137,6.82471,3.94165,-0.240234
703,1.70064e-34,0.0530385,0.0790747,9.86486,1.63311,0.165033,-1.36646,3.91602,-0.249268
704,1.7016e-34,0.0487837,0.0912746,9.89695,1.63099,0.120515,6.58496,3.93286,-0.24292
705,1.70255e-34,0.0635286,0.0917776,9.88064,1.63473,0.103174,0.791748,3.94189,-0.244873
706,1.70351e-34,0.0629758,0.0798396,9.86263,1.70744,0.104583,7.50977,3.93945,-0.240479
707,1.70447e-34,0.0581758,0.0980014,9.86545,1.65998,0.0465667,5.25562,3.93823,-0.242676
708,1.70542e-34,0.0566164,0.0845511,9.89228,1.69338,0.18076,-7.32129,3.93677,-0.246338
709,1.70638e-34,0.0563,0.0754196,9.88089,1.58091,0.0931077,-5.69214,3.93408,-0.241699
710,1.70734e-34,0.0634171,0.0748688,9.87771,1.58094,0.141339,1.39868,3.92773,-0.248291
711,1.70829e-34,0.0611685,0.0740884,9.86744,1.65427,0.096079,-2.99707,3.91968,-0.241943
712,1.70925e-34,0.0338329,0.0740248,9.85791,1.58004,0.10197,-2.11328,3.92529,-0.245361
713,1.71021e-34,0.0615102,0.1035,9.89284,1.62673,0.252915,7.6394,3.92896,-0.246338
714,1.71116e-34,0.0549322,0.0928415,9.90243,1.671,0.162574,0.738281,3.94263,-0.242188
715,1.71212e-34,0.0617001,0.076657,9.88492,1.57699,0.142415,6.61841,3.93921,-0.247314
716,1.71307e-34,0.0533439,0.0873406,9.84283,1.62671,0.088907,0.901611,3.93848,-0.243652
717,1.71403e-34,0.061781,0.0931058,9.88689,1.68198,0.0571454,-7.16333,3.93604,-0.24292
718,1.71499e-34,0.0623363,0.0742379,9.88315,1.69635,0.182578,-0.520264,3.94189,-0.244385
719,1.71594e-34,0.029153,0.0776305,9.88824,1.68357,0.0666739,-0.412354,3.93994,-0.23877
720,1.7169e-34,0.0444238,0.0899711,9.87547,1.7203,0.131708,-1.23486,3.93579,-0.245361
721,1.71786e-34,0.0527211,0.0923287,9.90903,1.67051,0.158936,3.18164,3.92822,-0.244629
722,1.71881e-34,0.0650125,0.0787743,9.89853,1.56401,0.209268,-1.41016,3.94067,-0.246338
723,1.71977e-34,0.0425573,0.102783,9.85395,1.61887,0.15512,4.1665,3.93726,-0.247803
724,1.72073e-34,0.0581303,0.108204,9.89816,1.65122,0.191236,6.31836,3.93604,-0.240479
725,1.72168e-34,0.0758026,0.0905737,9.86464,1.69364,0.179991,5.15161,3.93774,-0.247314
726,1.72264e-34,0.0662546,0.0831208,9.84768,1.66034,0.114572,7.56201,3.9397,-0.239746
727,1.7236e-34,0.0665501,0.0741392,9.90137,1.60291,0.0994345,-0.443848,3.93213,-0.248291
728,1.72455e-34,0.0733131,0.112207,9.91407,1.59292,0.119311,0.53125,3.94067,-0.241455
729,1.72551e-34,0.0609515,0.0887529,9.90174,1.67,0.153634,-4.85693,3.93701,-0.246826
730,1.72647e-34,0.065357,0.0879792,9.85397,1.67223,0.0149587,-5.60815,3.94165,-0.246826
731,1.72742e-34,0.0675378,0.0777651,9.88785,1.60932,0.0982562,-7.47729,3.93555,-0.241699
732,1.72838e-34,0.0674937,0.086373,9.89229,1.61918,0.222075,-3.87183,3.93799,-0.245361
733,1.72934e-34,0.064786,0.101756,9.8713,1.71654,0.125612,5.56567,3.94165,-0.241699
734,1.73029e-34,0.0578184,0.0918014,9.9032,1.64223,0.102944,-0.409912,3.93799,-0.248291
735,1.73125e-34,0.0630774,0.0801694,9.86853,1.66905,0.120771,4.88843,3.93848,-0.244873
736,1.73221e-34,0.0635623,0.0909197,9.8633,1.62404,0.0565562,-6.55298,3.94214,-0.244873
737,1.73316e-34,0.0571253,0.0882849,9.89575,1.6849,0.0179043,-5.37134,3.92969,-0.246826
738,1.73412e-34,0.0557327,0.100348,9.88653,1.62883,0.1887,-6.52466,3.9292,-0.238525
739,1.73508e-34,0.0581708,0.0810328,9.88113,1.6995,0.113497,5.02393,3.92358,-0.246338
740,1.73603e-34,0.0736648,0.0902328,9.86144,1.62656,-0.050396,-0.304199,3.9375,-0.244873
741,1.73699e-34,0.0724687,0.0704584,9.85237,1.68314,0.130197,4.85742,3.93018,-0.246338
742,1.73795e-34,0.0567746,0.102769,9.87843,1.62141,0.208116,-2.27148,3.92603,-0.24292
743,1.7389e-34,0.0401906,0.0815159,9.89741,1.65371,0.178736,-2.47754,3.9231,-0.241943
744,1.73986e-34,0.083872,0.0765843,9.88238,1.69044,0.180939,1.47559,3.94067,-0.248291
745,1.74082e-34,0.0522521,0.0856186,9.91809,1.64141,0.0492306,5.854,3.93042,-0.240723
746,1.74177e-34,0.0669605,0.080288,9.89168,1.71326,0.0603728,6.98218,3.94189,-0.248291
747,1.74273e-34,0.0463556,0.0966477,9.848,1.63442,0.16283,2.12061,3.93701,-0.246826
748,1.74369e-34,0.055809,0.0852146,9.87848,1.71431,0.14677,6.302,3.94019,-0.244873
749,1.74464e-34,0.0461217,0.0881209,9.88761,1.63841,0.240364,5.69067,3.93506,-0.24585
750,1.7456e-34,0.0452388,0.0727629,9.87221,1.66175,0.146795,1.47754,3.93921,-0.242188
751,1.74656e-34,0.063398,0.0808122,9.8881,1.62389,0.116698,-0.856689,3.92725,-0.244873
752,1.74751e-34,0.0663483,0.104371,9.88419,1.75834,0.134449,4.09692,3.94165,-0.240967
753,1.74847e-34,0.0582967,0.0884802,9.86142,1.6272,0.0810947,2.05664,3.9375,-0.244629
754,1.74942e-34,0.0749325,0.0690603,9.88046,1.64717,0.0823242,-2.80786,3.9353,-0.244873
755,1.75038e-34,0.0689069,0.0590905,9.86218,1.61782,0.154121,-1.03882,3.9375,-0.242676
756,1.75134e-34,0.0455168,0.0789326,9.87918,1.66662,0.130325,6.84229,3.93652,-0.246338
757,1.75229e-34,0.0582754,0.0892834,9.89643,1.64784,0.12866,-4.45459,3.94214,-0.243652
758,1.75325e-34,0.0516118,0.0912907,9.85173,1.67891,0.154454,5.63647,3.93628,-0.247314
759,1.75421e-34,0.0683946,0.0796149,9.88241,1.68859,0.112523,5.25073,3.94214,-0.248291
760,1.75516e-34,0.0628714,0.0797656,9.86787,1.65983,0.123384,5.04663,3.93774,-0.241455
761,1.75612e-34,0.0720039,0.0700966,9.91675,1.69889,0.148383,-3.32715,3.93091,-0.244873
762,1.75708e-34,0.0609789,0.0983668,9.89134,1.6296,0.108835,-3.55933,3.93945,-0.244141
763,1.75803e-34,0.0699334,0.0942791,9.87024,1.59725,0.213367,-3.83032,3.94604,-0.247803
764,1.75899e-34,0.0370008,0.103331,9.87607,1.68058,0.126201,2.1001,3.94458,-0.240479
765,1.75995e-34,0.0315512,0.0798973,9.89721,1.56365,0.083528,5.59009,3.93164,-0.243896
766,1.7609e-34,0.0629375,0.0988847,9.91526,1.68216,0.0919807,-5.38037,3.93652,-0.247803
767,1.76186e-34,0.0688413,0.0630997,9.87216,1.66672,0.111934,-3.21973,3.92944,-0.243652
768,1.76282e-34,0.0575557,0.0639123,9.87045,1.72322,0.179479,-1.06616,3.92725,-0.249756
769,1.76377e-34,0.0565082,0.0716021,9.83779,1.62676,0.105274,3.69751,3.93457,-0.239014
770,1.76473e-34,0.0581649,0.0858672,9.8728,1.72599,0.119849,-2.70386,3.93579,-0.247803
771,1.76569e-34,0.0759138,0.0868325,9.89002,1.71641,0.10133,-5.51782,3.92163,-0.246826
772,1.76664e-34,0.0491964,0.101284,9.87627,1.73278,0.133681,-3.71484,3.93823,-0.245361
773,1.7676e-34,0.0501913,0.0898891,9.87145,1.65442,0.0763304,3.28711,3.92773,-0.248291
774,1.76856e-34,0.0511011,0.0805373,9.87923,1.66554,0.0833487,3.31567,3.9375,-0.244629
775,1.76951e-34,0.0542257,0.0670007,9.86695,1.57072,0.217439,-2.70532,3.93677,-0.250732
776,1.77047e-34,0.0621771,0.0953707,9.87739,1.62735,0.176123,3.48755,3.93457,-0.244629
777,1.77143e-34,0.0472313,0.107096,9.9127,1.70596,0.0482316,4.01367,3.93408,-0.248047
778,1.77238e-34,0.0578439,0.0980606,9.89448,1.66288,0.0833487,2.44629,3.92871,-0.248779
779,1.77334e-34,0.0525993,0.0838418,9.9143,1.71436,0.178096,7.5105,3.93896,-0.23877
780,1.7743e-34,0.0584998,0.0818108,9.87236,1.65412,0.133245,1.5979,3.93555,-0.251709
781,1.77525e-34,0.0592164,0.0720188,9.88769,1.7212,0.074563,-4.55566,3.93921,-0.243408
782,1.77621e-34,0.0486141,0.08132,9.88069,1.72097,0.102252,-2.90845,3.93188,-0.252197
783,1.77717e-34,0.056464,0.0938107,9.87697,1.63767,0.0961302,-5.86914,3.94092,-0.24585
784,1.77812e-34,0.0681791,0.103924,9.86253,1.67102,0.0330936,-4.27588,3.93433,-0.24585
785,1.77908e-34,0.0570797,0.0754553,9.87535,1.56964,0.137318,2.15576,3.94189,-0.250244
786,1.78004e-34,0.0571617,0.0887662,9.88295,1.69118,0.0700037,-6.44775,3.94214,-0.244141
787,1.78099e-34,0.0695551,0.07812,9.8576,1.62151,0.169208,-3.30176,3.94312,-0.248779
788,1.78195e-34,0.0794539,0.0981729,9.86546,1.68921,0.0863712,3.85596,3.93384,-0.24292
789,1.78291e-34,0.0676808,0.0938997,9.87591,1.69799,0.130684,6.40454,3.94214,-0.250244
790,1.78386e-34,0.0544795,0.0632774,9.88401,1.68296,0.0557622,4.52002,3.93921,-0.247803
791,1.78482e-34,0.0617121,0.0756107,9.90829,1.63601,0.117108,6.37793,3.93091,-0.246582
792,1.78578e-34,0.0573627,0.0876914,9.88022,1.68024,0.0122436,-3.97632,3.9375,-0.248291
793,1.78673e-34,0.0583989,0.0835188,9.89454,1.63122,0.0794553,4.46997,3.9375,-0.241699
794,1.78769e-34,0.0676468,0.0888248,9.89404,1.6888,0.0864224,5.51538,3.93994,-0.249268
795,1.78864e-34,0.0608874,0.0627722,9.86032,1.65734,0.217849,6.16992,3.92993,-0.249268
796,1.7896e-34,0.0665788,0.0777327,9.87845,1.62604,0.103277,-4.2666,3.92749,-0.246582
797,1.79056e-34,0.0540002,0.0893214,9.88396,1.66626,0.127533,-3.84814,3.92847,-0.249268
798,1.79151e-34,0.0469381,0.0966744,9.87914,1.6585,0.0897523,7.5,3.94678,-0.243652
799,1.79247e-34,0.0575831,0.0944823,9.87825,1.72351,0.0902646,-7.23315,3.94092,-0.250244
800,1.79343e-34,0.0563715,0.0762546,9.86735,1.66457,0.158578,1.94678,3.94141,-0.247559
801,1.79438e-34,0.0595068,0.0812308,9.89112,1.66031,0.115443,3.52393,3.93896,-0.246826
802,1.79534e-34,0.0564565,0.102689,9.90225,1.70785,0.22748,-4.40161,3.94189,-0.246826
803,1.7963e-34,0.052795,0.0926228,9.85613,1.64077,0.156554,5.2439,3.94702,-0.24707
804,1.79725e-34,0.0734567,0.0810292,9.87772,1.74838,0.0434674,2.52271,3.94214,-0.249756
805,1.79821e-34,0.0566425,0.0882375,9.89529,1.6315,0.127969,3.96021,3.93433,-0.244629
806,1.79917e-34,0.049942,0.0960301,9.8736,1.62251,0.124946,3.04858,3.94116,-0.24585
807,1.80012e-34,0.0505348,0.0798686,9.88614,1.59723,0.0849112,3.85474,3.93481,-0.243896
808,1.80108e-34,0.0498985,0.0865507,9.90622,1.64069,0.147077,-3.63989,3.92944,-0.243408
809,1.80204e-34,0.072886,0.0752291,9.90165,1.70542,0.115187,-0.287842,3.93335,-0.250732
810,1.80299e-34,0.0480905,0.0860929,9.87919,1.67427,0.0671349,4.01318,3.93408,-0.244141
811,1.80395e-34,0.0614448,0.0923983,9.85613,1.6942,0.173178,1.86572,3.9314,-0.250732
812,1.80491e-34,0.0555709,0.0734914,9.88829,1.6118,0.149459,-0.991699,3.94165,-0.243652
813,1.80586e-34,0.0603685,0.0906016,9.87043,1.76349,0.116775,4.38672,3.92944,-0.243896
814,1.80682e-34,0.0526132,0.0810671,9.85407,1.61283,0.0338364,2.1521,3.94482,-0.249756
815,1.80778e-34,0.0696091,0.066506,9.85945,1.65366,0.162164,6.09253,3.94019,-0.243164
816,1.80873e-34,0.0588815,0.0867132,9.88006,1.59131,0.241747,1.15527,3.94458,-0.247803
817,1.80969e-34,0.0413342,0.0831673,9.90156,1.70637,0.15261,-4.5542,3.93823,-0.245117
818,1.81065e-34,0.0567828,0.0958943,9.89218,1.61626,0.0295332,-7.60327,3.94312,-0.249268
819,1.8116e-34,0.067018,0.089691,9.89023,1.6295,0.222639,-1.61621,3.93823,-0.243408
820,1.81256e-34,0.0465865,0.0849257,9.88727,1.57212,0.1199,-1.97021,3.93628,-0.243896
821,1.81352e-34,0.0551187,0.0834377,9.88851,1.72105,0.0777904,-1.38843,3.93262,-0.249756
822,1.81447e-34,0.0736739,0.0850942,9.87203,1.69717,0.0789175,-0.518799,3.94141,-0.239258
823,1.81543e-34,0.0512083,0.0791847,9.86038,1.70683,0.154736,-0.133545,3.93555,-0.249756
824,1.81639e-34,0.064772,0.0758414,9.89158,1.6367,0.0332985,2.4209,3.9397,-0.242432
825,1.81734e-34,0.0488825,0.0740319,9.85818,1.57105,0.187368,-0.448486,3.93604,-0.244873
826,1.8183e-34,0.0598684,0.0728288,9.90798,1.60768,0.112472,-7.81055,3.94116,-0.246338
827,1.81926e-34,0.0655377,0.0725479,9.88799,1.68808,0.0900084,-7.12573,3.93896,-0.243652
828,1.82021e-34,0.0645474,0.0922978,9.89005,1.6973,0.115853,-4.97314,3.93774,-0.248291
829,1.82117e-34,0.0516006,0.0839601,9.87111,1.56096,0.15868,-1.53784,3.92651,-0.243164
830,1.82213e-34,0.0636043,0.068631,9.91632,1.68606,0.172486,3.69507,3.93652,-0.248291
831,1.82308e-34,0.0398701,0.0979794,9.89377,1.66979,0.143286,-2.19727,3.94092,-0.245361
832,1.82404e-34,0.0679473,0.0684407,9.8557,1.6522,0.12551,5.96265,3.92798,-0.244873
833,1.82499e-34,0.0588892,0.0880137,9.89135,1.64126,0.0959765,-4.1123,3.92969,-0.248291
834,1.82595e-34,0.0528793,0.0804812,9.8783,1.68006,0.150356,-6.39307,3.94043,-0.242188
835,1.82691e-34,0.0543697,0.0796116,9.88085,1.68042,0.0471558,-3.81909,3.93774,-0.253174
836,1.82786e-34,0.0643197,0.0927948,9.8731,1.75473,0.057504,-2.82471,3.93945,-0.25
837,1.82882e-34,0.0623948,0.102673,9.89025,1.7068,0.122026,7.60889,3.94385,-0.24585
838,1.82978e-34,0.0447544,0.0818111,9.87988,1.64815,-0.0799036,5.25317,3.94019,-0.245361
839,1.83073e-34,0.0660046,0.0691161,9.86821,1.66533,0.0979488,3.83618,3.94043,-0.246094
840,1.83169e-34,0.0577701,0.0805613,9.84569,1.67366,0.0881386,-5.0249,3.9375,-0.253174
841,1.83265e-34,0.051006,0.0807331,9.88721,1.65207,0.124357,-2.22729,3.93262,-0.244141
842,1.8336e-34,0.0436782,0.0849913,9.88486,1.65363,0.116289,-5.00586,3.93091,-0.256592
843,1.83456e-34,0.0380445,0.0913282,9.89331,1.6338,0.123666,-1.07715,3.93506,-0.246338
844,1.83552e-34,0.0578308,0.0622243,9.90185,1.69174,0.0733592,7.3208,3.93237,-0.25
845,1.83647e-34,0.0574577,0.0795563,9.87443,1.65583,0.0720016,-0.733154,3.94434,-0.255127
846,1.83743e-34,0.0476119,0.0768705,9.88285,1.6244,0.113753,-6.86914,3.94312,-0.245605
847,1.83839e-34,0.0580739,0.0676484,9.86663,1.6742,0.150176,2.75024,3.93701,-0.251221
848,1.83934e-34,0.0433467,0.0811625,9.88847,1.69,0.174279,6.16284,3.93481,-0.244141
849,1.8403e-34,0.0690014,0.0707287,9.85214,1.63145,0.0295588,0.92749,3.927,-0.244385
850,1.84126e-34,0.0572712,0.100129,9.87067,1.62712,0.113087,6.74048,3.93408,-0.248291
851,1.84221e-34,0.0668223,0.0881809,9.88681,1.66736,0.151995,4.2041,3.94019,-0.244141
852,1.84317e-34,0.0703448,0.0888587,9.8797,1.72934,0.153839,-2.80054,3.92944,-0.248779
853,1.84413e-34,0.0579738,0.0934519,9.86931,1.5806,0.206989,-3.38599,3.93604,-0.238281
854,1.84508e-34,0.0567482,0.0911305,9.88189,1.73324,0.195001,-6.49683,3.93945,-0.249268
855,1.84604e-34,0.0756817,0.104674,9.87789,1.65322,0.127789,7.76855,3.94214,-0.243408
856,1.847e-34,0.0469995,0.0724109,9.89983,1.62184,0.198049,-1.23145,3.93286,-0.242432
857,1.84795e-34,0.0430697,0.0892949,9.86115,1.65568,0.201149,-7.18164,3.94165,-0.247803
858,1.84891e-34,0.0466542,0.0913839,9.85188,1.58209,0.177942,-4.45679,3.94409,-0.243164
859,1.84987e-34,0.055211,0.101728,9.89328,1.71339,0.12387,-3.06982,3.93457,-0.248291
860,1.85082e-34,0.0607803,0.075745,9.88435,1.62087,0.12446,-7.54346,3.9375,-0.242676
861,1.85178e-34,0.050707,0.0722706,9.89855,1.64623,0.16014,5.6709,3.94165,-0.245361
862,1.85274e-34,0.04861,0.0995646,9.8914,1.69174,0.108092,-5.1626,3.93066,-0.247803
863,1.85369e-34,0.0463553,0.0941219,9.87991,1.65465,0.1376,-1.23145,3.93286,-0.241699
864,1.85465e-34,0.0474861,0.0899818,9.88502,1.64059,0.121258,5.62354,3.93799,-0.248291
865,1.85561e-34,0.0794689,0.0834596,9.89841,1.74845,0.145643,2.47461,3.93896,-0.245605
866,1.85656e-34,0.0619694,0.103663,9.89635,1.62666,0.216722,-1.88452,3.94238,-0.248779
867,1.85752e-34,0.058421,0.0773299,9.88367,1.6557,0.129121,-6.28516,3.93799,-0.24292
868,1.85848e-34,0.0654804,0.0770008,9.88241,1.71933,0.109834,-0.830078,3.93848,-0.244385
869,1.85943e-34,0.0533165,0.0877131,9.87302,1.66539,0.0383957,6.6145,3.94214,-0.248291
870,1.86039e-34,0.0546169,0.0957123,9.89991,1.69438,0.195718,6.73682,3.93701,-0.240723
871,1.86135e-34,0.0711427,0.0667124,9.88058,1.62153,0.181477,-6.47949,3.93481,-0.248291
872,1.8623e-34,0.057145,0.082067,9.87576,1.65002,0.193106,-6.95142,3.93408,-0.242432
873,1.86326e-34,0.0611188,0.0975609,9.88608,1.71252,0.223484,-2.37793,3.92749,-0.247803
874,1.86421e-34,0.0583791,0.0912377,9.88792,1.63152,0.188828,6.09619,3.93774,-0.246338
875,1.86517e-34,0.0582402,0.0984752,9.90184,1.61149,0.0847063,4.83594,3.93823,-0.23999
876,1.86613e-34,0.0408006,0.0816864,9.87763,1.69044,0.220513,-1.44629,3.93677,-0.250732
877,1.86708e-34,0.0632752,0.104926,9.90333,1.72274,0.19121,1.33936,3.93286,-0.240723
878,1.86804e-34,0.0503298,0.0734,9.88054,1.67678,0.203608,-4.59229,3.93579,-0.250244
879,1.869e-34,0.0496908,0.0687817,9.8928,1.60179,0.118748,2.12988,3.93018,-0.24585
880,1.86995e-34,0.0498508,0.082517,9.89264,1.67837,0.222536,-4.50659,3.94189,-0.24585
881,1.87091e-34,0.0579286,0.0844808,9.84972,1.69074,0.202839,-0.993652,3.94312,-0.247803
882,1.87187e-34,0.0503374,0.082343,9.91247,1.64968,0.161114,-6.36523,3.92749,-0.243652
883,1.87282e-34,0.0652413,0.0818421,9.88699,1.63342,0.151841,-4.97656,3.94019,-0.247314
884,1.87378e-34,0.0442332,0.0991501,9.87976,1.65655,0.0893681,-7.68848,3.93652,-0.245117
885,1.87474e-34,0.0469299,0.0855739,9.86822,1.72071,0.189878,0.637939,3.93921,-0.244873
886,1.87569e-34,0.080365,0.0992656,9.86988,1.65325,0.190339,-5.4458,3.93799,-0.246826
887,1.87665e-34,0.040411,0.0892428,9.88711,1.76016,0.147461,4.62085,3.94214,-0.240723
888,1.87761e-34,0.0550549,0.0869634,9.86955,1.70245,0.103302,5.354,3.94312,-0.247314
889,1.87856e-34,0.056379,0.0956758,9.8982,1.6639,0.140084,3.49585,3.92871,-0.240234
890,1.87952e-34,0.0587861,0.0697659,9.87251,1.65337,0.0371919,-0.657471,3.93506,-0.247803
891,1.88048e-34,0.0644516,0.104433,9.86737,1.63821,0.167287,7.94995,3.93237,-0.245361
892,1.88143e-34,0.0575863,0.0963013,9.88643,1.66703,0.158142,-4.86963,3.93872,-0.24292
893,1.88239e-34,0.0749613,0.107068,9.86976,1.59282,0.0607314,5.98901,3.93921,-0.246826
894,1.88335e-34,0.057536,0.0755727,9.89009,1.60335,0.0303529,-7.02051,3.93896,-0.244141
895,1.8843e-34,0.0610941,0.0779259,9.89196,1.6867,0.0581955,-1.14575,3.93945,-0.249756
896,1.88526e-34,0.046295,0.0745837,9.87805,1.69553,0.0695426,4.10083,3.93872,-0.24292
897,1.88622e-34,0.0560774,0.0904472,9.88267,1.737,0.121821,7.66895,3.93823,-0.247314
898,1.88717e-34,0.0606344,0.0738102,9.87521,1.60688,0.160883,7.53149,3.9314,-0.248779
899,1.88813e-34,0.0492937,0.0759953,9.86994,1.70501,0.0705928,0.79126,3.94238,-0.241211
900,1.88909e-34,0.0524679,0.0758823,9.87615,1.69443,0.123486,5.16504,3.93555,-0.249268
901,1.89004e-34,0.0567131,0.0934201,9.88599,1.64541,0.117646,-0.961182,3.92676,-0.240967
902,1.891e-34,0.0655421,0.100108,9.90011,1.60122,0.19518,5.5835,3.93652,-0.247314
903,1.89196e-34,0.0620474,0.0951592,9.86602,1.63309,0.143388,-4.89648,3.92749,-0.246338
904,1.89291e-34,0.0621651,0.0947894,9.84595,1.6722,0.160371,2.42017,3.94019,-0.243164
905,1.89387e-34,0.0603945,0.0915302,9.89594,1.60371,0.0836561,-5.70947,3.93921,-0.250732
906,1.89483e-34,0.05836,0.0828827,9.86271,1.63967,0.228172,-6.20142,3.92285,-0.243164
907,1.89578e-34,0.0577172,0.0828501,9.87818,1.7087,0.0862688,-3.30322,3.94458,-0.250244
908,1.89674e-34,0.065672,0.0797067,9.90579,1.65437,0.108476,5.09937,3.9375,-0.244629
909,1.8977e-34,0.0662997,0.0750548,9.86745,1.59464,0.124716,-1.90601,3.92725,-0.247314
910,1.89865e-34,0.0556359,0.0661486,9.8797,1.63555,0.0852442,-3.49146,3.93652,-0.248291
911,1.89961e-34,0.0676834,0.0942193,9.89842,1.76751,0.175227,7.94604,3.9353,-0.245605
912,1.90056e-34,0.0556029,0.0798944,9.89456,1.6649,0.00176738,-7.49756,3.94263,-0.250244
913,1.90152e-34,0.0707444,0.0915737,9.89074,1.69402,0.212419,-0.0976562,3.93994,-0.242676
914,1.90248e-34,0.0400777,0.077037,9.88861,1.65196,0.124536,6.94995,3.93506,-0.248291
915,1.90343e-34,0.0455427,0.0767716,9.87046,1.6732,0.252659,-5.11133,3.9314,-0.245361
916,1.90439e-34,0.054749,0.0925451,9.89945,1.64825,0.0724883,4.7832,3.93848,-0.242188
917,1.90535e-34,0.0623465,0.0918707,9.87202,1.68542,0.200226,-6.49805,3.94043,-0.249756
918,1.9063e-34,0.0531391,0.0950522,9.86422,1.70071,0.210754,7.66602,3.94019,-0.241211
919,1.90726e-34,0.0515445,0.083108,9.87494,1.6807,0.241337,6.88281,3.9375,-0.250732
920,1.90822e-34,0.054698,0.0747615,9.87128,1.60481,0.112344,5.49902,3.92139,-0.244141
921,1.90917e-34,0.0762774,0.0756461,9.87043,1.63934,0.0514334,7.82593,3.93848,-0.244873
922,1.91013e-34,0.0733368,0.0965553,9.88496,1.60978,0.102098,-5.34131,3.93848,-0.243896
923,1.91109e-34,0.0845342,0.073198,9.88335,1.69351,-0.0250379,-5.63354,3.92993,-0.239014
924,1.91204e-34,0.0637863,0.0983427,9.88548,1.61131,0.144797,4.57324,3.93848,-0.24585
925,1.913e-34,0.0694221,0.0753796,9.88375,1.63409,0.0371406,-7.80615,3.93774,-0.242188
926,1.91396e-34,0.0523456,0.0759323,9.89524,1.61969,0.100331,2.52759,3.93872,-0.244873
927,1.91491e-34,0.0556625,0.0749438,9.89036,1.63263,0.196307,4.25537,3.94092,-0.243896
928,1.91587e-34,0.047807,0.0857663,9.8583,1.6213,0.0360905,1.12964,3.93286,-0.245361
929,1.91683e-34,0.0649874,0.0801434,9.87904,1.63557,0.0857052,-4.92358,3.93994,-0.247314
930,1.91778e-34,0.0524177,0.086082,9.87431,1.68301,0.0631903,-1.77271,3.9375,-0.244629
931,1.91874e-34,0.0527128,0.0984878,9.88516,1.61849,0.0763304,1.84106,3.94189,-0.248779
932,1.9197e-34,0.0565773,0.0958245,9.85626,1.66879,0.160729,-7.73486,3.93188,-0.246094
933,1.92065e-34,0.0638429,0.0721585,9.86039,1.7128,0.0296613,5.56714,3.94067,-0.244385
934,1.92161e-34,0.0533489,0.0647238,9.87946,1.65099,0.103866,-4.66333,3.94116,-0.247314
935,1.92257e-34,0.0594988,0.0754874,9.86821,1.62425,0.146898,-4.10669,3.92578,-0.241699
936,1.92352e-34,0.0459254,0.09527,9.85837,1.63362,0.250405,2.05615,3.93799,-0.247314
937,1.92448e-34,0.0676711,0.0872382,9.90232,1.63283,0.183987,-1.45947,3.93848,-0.245605
938,1.92544e-34,0.0570544,0.0901816,9.88513,1.6919,0.0673654,-4.11768,3.93359,-0.246826
939,1.92686e-34,0.0684798,0.073172,9.87844,1.68836,0.220231,-2.30151,3.94043,-0.245361
940,1.92877e-34,0.0503661,0.087396,9.89057,1.63024,0.139393,6.90063,3.93237,-0.243896
941,1.93068e-34,0.045637,0.092842,9.85405,1.66078,0.311059,2.4873,3.93726,-0.247803
942,1.93259e-34,0.0483264,0.0930182,9.86963,1.64733,0.279938,-6.67749,3.92603,-0.244629
943,1.93451e-34,0.04301,0.0728589,9.87802,1.56713,0.227685,2.06934,3.93628,-0.247314
944,1.93642e-34,0.0523266,0.0889635,9.8829,1.70396,0.183039,-4.92188,3.93848,-0.246338
945,1.93833e-34,0.0574367,0.0651514,9.89282,1.59305,0.088907,-6.91699,3.93994,-0.247803
946,1.94025e-34,0.0656073,0.0667047,9.85169,1.63939,0.163342,-1.80933,3.93359,-0.247803
947,1.94216e-34,0.0615429,0.0686979,9.85735,1.69546,0.164008,5.53369,3.93481,-0.240723
948,1.94407e-34,0.0714474,0.0949087,9.88952,1.63959,0.0267413,6.06152,3.93237,-0.244873
949,1.94599e-34,0.0577449,0.0830016,9.8903,1.60166,0.0803006,4.16895,3.9353,-0.245117
950,1.9479e-34,0.0644381,0.0923465,9.91363,1.69512,0.208372,3.26172,3.93872,-0.248291
951,1.94981e-34,0.0559459,0.0919707,9.87467,1.75104,0.10822,-5.91797,3.93823,-0.244385
952,1.95173e-34,0.0417769,0.0708719,9.85748,1.7045,0.0890351,-1.75781,3.93433,-0.245361
953,1.95364e-34,0.0519114,0.0937873,9.86781,1.73316,0.144849,4.54175,3.93164,-0.248291
954,1.95555e-34,0.0447971,0.0836136,9.88387,1.70785,0.208782,7.53833,3.92651,-0.242188
955,1.95747e-34,0.055974,0.0914606,9.88646,1.66956,0.0950288,1.11011,3.93945,-0.247803
956,1.95938e-34,0.0537618,0.0849307,9.8716,1.59021,0.10051,7.03467,3.94165,-0.245361
957,1.96129e-34,0.0578288,0.095735,9.86959,1.68188,0.208807,5.41016,3.94043,-0.241455
958,1.96321e-34,0.0641235,0.0784305,9.85172,1.68513,0.104327,-5.5498,3.9375,-0.246338
959,1.96512e-34,0.0476182,0.0725672,9.89111,1.6025,0.108604,1.58252,3.93921,-0.241699
960,1.96703e-34,0.0756458,0.0895149,9.90674,1.6963,0.0956692,5.20337,3.93848,-0.249268
961,1.96894e-34,0.06055,0.0778792,9.87414,1.65673,0.230195,-3.76685,3.93799,-0.240723
962,1.97086e-34,0.0445168,0.0972408,9.89254,1.61149,0.111089,-3.17236,3.93311,-0.243896
963,1.97277e-34,0.0616106,0.0784437,9.88076,1.60829,0.083195,2.99902,3.93896,-0.244385
964,1.97468e-34,0.0574376,0.0759417,9.8926,1.57092,0.0857308,5.58643,3.93457,-0.242188
965,1.9766e-34,0.0564181,0.0852601,9.86506,1.69774,0.123358,-5.37915,3.93555,-0.245361
966,1.97851e-34,0.0764951,0.079926,9.9104,1.66119,0.118901,2.01685,3.93652,-0.241211
967,1.98042e-34,0.0769818,0.0877511,9.90158,1.61872,0.0948495,2.21191,3.93921,-0.248779
968,1.98234e-34,0.0510067,0.0795468,9.89009,1.59753,0.125177,1.08081,3.93018,-0.241943
969,1.98425e-34,0.0659802,0.0846343,9.86561,1.61203,0.183757,-7.4939,3.9397,-0.24292
970,1.98616e-34,0.0740594,0.0806977,9.8822,1.6784,0.164828,-6.24072,3.94409,-0.247314
971,1.98808e-34,0.0542622,0.0739315,9.8371,1.68255,0.126073,-2.03906,3.94019,-0.242188
972,1.98999e-34,0.0512146,0.104474,9.89197,1.59715,0.0703367,-0.914795,3.9314,-0.247803
973,1.9919e-34,0.0567137,0.0807198,9.87805,1.63877,0.0941067,6.72461,3.93823,-0.242676
974,1.99382e-34,0.0548694,0.0703862,9.90363,1.69246,0.189648,-7.57788,3.93213,-0.246338
975,1.99573e-34,0.0597025,0.0843122,9.8821,1.62653,0.161139,-0.723633,3.9375,-0.244385
976,1.99764e-34,0.0479097,0.0745255,9.88433,1.56992,0.168695,-2.90112,3.92603,-0.242432
977,1.99956e-34,0.068608,0.0939372,9.89036,1.63342,0.126227,-6.8103,3.93848,-0.247314
978,2.00147e-34,0.0620476,0.0837538,9.89139,1.70522,0.0960022,-0.554443,3.93652,-0.246094
979,2.00338e-34,0.0455796,0.0887485,9.8887,1.66726,0.143619,0.272705,3.93799,-0.249268
980,2.00529e-34,0.0563745,0.0855122,9.87696,1.73063,0.118107,7.77319,3.93872,-0.242432
981,2.00721e-34,0.0513939,0.0982168,9.87821,1.67435,0.10051,-0.0251465,3.93311,-0.248291
982,2.00912e-34,0.0650957,0.0907045,9.88072,1.68511,0.156144,1.13599,3.92798,-0.243408
983,2.01103e-34,0.0460899,0.0851557,9.87302,1.63498,0.206451,-0.0952148,3.93799,-0.243164
984,2.01295e-34,0.0471092,0.0915163,9.90593,1.71385,0.14513,-6.84912,3.93652,-0.246338
985,2.01486e-34,0.0640004,0.0907971,9.87483,1.69766,0.204171,3.36719,3.93823,-0.240723
986,2.01677e-34,0.0542061,0.084216,9.86559,1.67556,0.146283,4.9917,3.93945,-0.243408
987,2.01869e-34,0.0708793,0.0810682,9.9029,1.6754,0.192132,-7.54785,3.94092,-0.243896
988,2.0206e-34,0.0372377,0.0766206,9.90232,1.66282,0.0566587,-6.16577,3.9353,-0.24292
989,2.02251e-34,0.0548575,0.0815513,9.86417,1.69356,0.122769,-5.69067,3.93311,-0.248291
990,2.02443e-34,0.0489681,0.0912703,9.90138,1.55422,0.130966,4.09741,3.94116,-0.243652
991,2.02634e-34,0.0400629,0.0921661,9.86819,1.59851,0.156452,1.94995,3.93896,-0.249756
992,2.02825e-34,0.0651505,0.0675849,9.88254,1.66418,0.0919551,-7.16333,3.93604,-0.245117
993,2.03017e-34,0.0600887,0.103169,9.88564,1.7443,0.0243848,0.653076,3.93604,-0.244141
994,2.03208e-34,0.0556548,0.093632,9.87345,1.65852,0.174971,-5.92041,3.94019,-0.244873
995,2.03399e-34,0.0731372,0.115162,9.88778,1.68078,0.00650602,1.01904,3.93726,-0.240723
996,2.03591e-34,0.059513,0.107088,9.87888,1.63206,0.187394,-7.78394,3.9292,-0.248291
997,2.03782e-34,0.058491,0.102151,9.88815,1.77988,0.206707,-1.27881,3.9292,-0.242676
998,2.03973e-34,0.0483056,0.0855895,9.86823,1.68127,0.0997931,4.32739,3.93457,-0.244873
999,2.04164e-34,0.062415,0.0895727,9.88683,1.7316,0.124818,5.97754,3.91626,-0.24292
1000,2.04356e-34,0.0640698,0.0857437,9.86952,1.63301,0.151355,-1.93384,3.94019,-0.241943
1001,2.04547e-34,0.0515839,0.103075,9.88829,1.70596,0.148614,-0.620361,3.93848,-0.246826
1002,2.04738e-34,0.0616733,0.0946089,9.88543,1.668,0.143363,-5.11768,3.93628,-0.244629
1003,2.0493e-34,0.0533944,0.102633,9.85941,1.64128,0.172896,-7.00171,3.93335,-0.24585
1004,2.05121e-34,0.0676942,0.103409,9.87449,1.49451,0.0649065,-6.18115,3.93896,-0.241943
1005,2.05312e-34,0.0558566,0.0813564,9.90296,1.58363,0.180632,-0.762939,3.93555,-0.245605
1006,2.05504e-34,0.0542772,0.0995228,9.85048,1.62871,0.106939,0.967285,3.93652,-0.246826
1007,2.05695e-34,0.061506,0.0909769,9.88532,1.5888,0.110525,3.99487,3.9397,-0.242676
1008,2.05886e-34,0.0550413,0.0865089,9.89445,1.66551,0.159551,-2.70435,3.93579,-0.248779
1009,2.06078e-34,0.0326559,0.085121,9.8951,1.74,0.0303016,7.16016,3.93506,-0.243652
1010,2.06269e-34,0.0572384,0.0899228,9.87403,1.69612,0.0534057,3.64258,3.93677,-0.249268
1011,2.0646e-34,0.0481943,0.0833332,9.8422,1.64641,0.0894193,-4.22583,3.93604,-0.244873
1012,2.06652e-34,0.0585406,0.077675,9.84426,1.72945,0.0322996,-1.93481,3.94116,-0.240967
1013,2.06843e-34,0.0564608,0.0705348,9.88818,1.67717,0.0649577,5.58887,3.93262,-0.249756
1014,2.07034e-34,0.0621644,0.0943522,9.86964,1.64828,0.0585798,-7.3877,3.93872,-0.244141
1015,2.07226e-34,0.0557196,0.0869004,9.87389,1.68342,0.0654956,0.482666,3.93799,-0.244873
1016,2.07417e-34,0.0729832,0.0760559,9.87173,1.68913,0.146437,-5.15747,3.92676,-0.243408
1017,2.07608e-34,0.0661261,0.103887,9.85017,1.65891,0.12008,0.323486,3.93921,-0.245361
1018,2.078e-34,0.0633941,0.0854859,9.8874,1.65891,0.0815813,-1.67188,3.94043,-0.244873
1019,2.07991e-34,0.064057,0.0940058,9.87452,1.69597,0.137241,-2.45728,3.93921,-0.243164
1020,2.08182e-34,0.0430314,0.0957616,9.89522,1.66856,0.121078,-3.87646,3.94141,-0.247803
1021,2.08373e-34,0.0567096,0.0814874,9.88629,1.74722,0.0150099,-5.29224,3.94116,-0.243652
1022,2.08565e-34,0.0580666,0.09023,9.85077,1.62873,0.110397,-1.40918,3.94019,-0.24292
1023,2.08756e-34,0.0503151,0.0856205,9.90342,1.62492,0.125868,4.4292,3.93701,-0.243408
1024,2.08947e-34,0.0565732,0.070446,9.88898,1.73859,0.185396,-2.43384,3.92969,-0.24292
1025,2.09139e-34,0.0677491,0.0797478,9.88927,1.61844,0.210165,6.11035,3.93506,-0.251709
1026,2.0933e-34,0.051943,0.0996695,9.90162,1.68977,0.169669,-2.22876,3.93359,-0.243896
1027,2.09521e-34,0.0666687,0.0987567,9.88561,1.60604,0.126919,3.83423,3.94238,-0.246826
1028,2.09713e-34,0.041689,0.0815206,9.86761,1.59605,0.120387,2.99585,3.94141,-0.245605
1029,2.09904e-34,0.0437614,0.0721221,9.89836,1.57207,0.178275,-1.67114,3.93994,-0.246338
1030,2.10095e-34,0.0610384,0.0868223,9.88459,1.64272,0.124767,-0.779541,3.94019,-0.245361
1031,2.10287e-34,0.0521356,0.0773607,9.90259,1.74103,0.119311,7.89819,3.93164,-0.242676
1032,2.10478e-34,0.0710706,0.094439,9.86263,1.56016,0.154531,0.284912,3.93677,-0.245361
1033,2.10669e-34,0.059222,0.0912643,9.85872,1.65476,0.125151,-7.91162,3.93823,-0.241699
1034,2.10861e-34,0.0736743,0.0842384,9.90095,1.67199,0.0893168,-2.43872,3.93359,-0.247314
1035,2.11052e-34,0.0649786,0.076136,9.9092,1.61544,0.226788,-0.0454102,3.94019,-0.244385
1036,2.11243e-34,0.045066,0.0664137,9.8629,1.67512,0.130914,3.43384,3.93579,-0.245361
1037,2.11435e-34,0.0688135,0.0831869,9.89727,1.6567,0.129992,5.78027,3.93823,-0.247803
1038,2.11626e-34,0.0502372,0.0697512,9.85948,1.76544,0.121873,-6.2334,3.93872,-0.243652
1039,2.11817e-34,0.0549637,0.103746,9.89495,1.65291,0.173511,-6.23755,3.94165,-0.248291
1040,2.12008e-34,0.0392566,0.0800906,9.86176,1.62574,0.00783796,-2.80957,3.93628,-0.24292
1041,2.122e-34,0.0287558,0.0956355,9.87333,1.6504,0.107093,-3.24683,3.94141,-0.24585
1042,2.12391e-34,0.0547802,0.10359,9.86651,1.64287,0.229606,-6.21802,3.93555,-0.24585
1043,2.12582e-34,0.0560418,0.101828,9.87322,1.71331,0.0507418,6.83008,3.93774,-0.245117
1044,2.12774e-34,0.0757369,0.0961088,9.8623,1.69784,0.169387,6.1272,3.92236,-0.248291
1045,2.12965e-34,0.059011,0.0989739,9.87466,1.59928,0.16324,1.07812,3.93213,-0.242188
1046,2.13156e-34,0.0523595,0.0964601,9.88204,1.6064,0.111422,-7.8606,3.93945,-0.248291
1047,2.13348e-34,0.0682636,0.0699115,9.88585,1.66188,0.129634,-0.199951,3.93799,-0.241455
1048,2.13539e-34,0.0558279,0.0732093,9.87924,1.50071,0.119721,7.66553,3.94067,-0.241943
1049,2.1373e-34,0.0736044,0.0812796,9.89925,1.59477,0.0738714,3.46826,3.94116,-0.248291
1050,2.13922e-34,0.0506185,0.0679287,9.88981,1.60717,0.034989,-3.64844,3.93628,-0.242676
1051,2.14113e-34,0.0551585,0.0618746,9.8958,1.62525,0.112882,-7.89697,3.93555,-0.246338
1052,2.14304e-34,0.055306,0.0891101,9.8982,1.55778,0.200047,7.16113,3.93408,-0.241699
1053,2.14496e-34,0.0723264,0.0956782,9.87511,1.61995,0.0685693,2.94751,3.93823,-0.243652
1054,2.14687e-34,0.0571607,0.0719555,9.8798,1.68116,0.143055,-0.394775,3.93481,-0.248291
1055,2.14878e-34,0.0618517,0.0904196,9.87754,1.68867,0.208756,-1.75952,3.93628,-0.244141
1056,2.1507e-34,0.0660941,0.0718198,9.85655,1.65517,0.20914,4.41455,3.9397,-0.246826
1057,2.15261e-34,0.0555661,0.0739882,9.88868,1.64041,0.230221,-4.00928,3.93115,-0.241455
1058,2.15452e-34,0.0443548,0.0650122,9.872,1.52069,0.199893,0.63623,3.94067,-0.248779
1059,2.15643e-34,0.0408387,0.0803997,9.87665,1.6116,0.185703,-1.72095,3.93774,-0.244385
1060,2.15835e-34,0.0479384,0.0790604,9.88087,1.54623,0.147487,-1.38599,3.93066,-0.241699
1061,2.16026e-34,0.0450675,0.101852,9.88544,1.68506,0.227019,6.61206,3.94409,-0.247803
1062,2.16217e-34,0.0714693,0.0684817,9.88753,1.72799,0.107477,-7.4231,3.93433,-0.240479
1063,2.16409e-34,0.0449835,0.0735037,9.85248,1.70931,0.14659,4.88818,3.93848,-0.247803
1064,2.166e-34,0.0716313,0.104183,9.8889,1.63967,0.0667507,-0.412109,3.93994,-0.241455
1065,2.16791e-34,0.0599772,0.0910643,9.86251,1.60962,0.194438,5.72144,3.94287,-0.246338
1066,2.16983e-34,0.0535749,0.0954046,9.89028,1.73421,0.150996,7.40479,3.93945,-0.24585
1067,2.17174e-34,0.0498637,0.0853103,9.85566,1.77053,0.0993832,-0.723877,3.9375,-0.242676
1068,2.17365e-34,0.0635318,0.105884,9.8789,1.56874,0.146539,0.795654,3.93896,-0.248779
1069,2.17557e-34,0.056789,0.0834555,9.89726,1.6493,0.158655,3.85767,3.93286,-0.241211
1070,2.17748e-34,0.0602973,0.0882019,9.90043,1.63496,0.191082,1.68604,3.94019,-0.24585
1071,2.17939e-34,0.0621377,0.089274,9.88937,1.69927,0.194489,-5.8186,3.94214,-0.239502
1072,2.18131e-34,0.0568159,0.0934958,9.8794,1.63081,0.146693,-2.22632,3.93164,-0.241943
1073,2.18322e-34,0.0631111,0.0794681,9.86294,1.68449,0.23542,-2.21997,3.92676,-0.249756
1074,2.18513e-34,0.0420784,0.100011,9.86735,1.63898,0.166826,5.72485,3.94043,-0.241699
1075,2.18705e-34,0.0645098,0.0613432,9.86331,1.67491,0.177891,7.2124,3.93481,-0.249268
1076,2.18896e-34,0.045192,0.0865697,9.88547,1.6668,0.111524,6.07544,3.92163,-0.241943
1077,2.19087e-34,0.04655,0.0666263,9.89519,1.59733,0.197332,6.14526,3.93994,-0.24292
1078,2.19278e-34,0.0483604,0.0853477,9.87186,1.65716,0.154326,3.94458,3.93799,-0.247803
1079,2.1947e-34,0.0384826,0.0808337,9.87165,1.71229,0.12948,-6.07666,3.93896,-0.242676
1080,2.19661e-34,0.0586722,0.0890261,9.87794,1.60842,0.174126,7.24976,3.93774,-0.248779
1081,2.19852e-34,0.0542834,0.0852895,9.87568,1.69267,0.243771,1.23145,3.9353,-0.243164
1082,2.20044e-34,0.054146,0.0872344,9.87389,1.58711,0.0954643,0.680176,3.94727,-0.245361
1083,2.20235e-34,0.040852,0.0889621,9.88148,1.68268,0.103533,-1.27637,3.92725,-0.245361
1084,2.20426e-34,0.0515516,0.0914121,9.88534,1.65883,0.155427,-4.24121,3.93921,-0.246338
1085,2.20618e-34,0.0480845,0.0749755,9.88466,1.66208,0.12031,1.08716,3.92529,-0.247314
1086,2.20809e-34,0.0579432,0.0779725,9.91872,1.61841,0.0915965,-6.80957,3.93799,-0.242676
1087,2.21e-34,0.0700364,0.0795508,9.87731,1.65437,0.149305,-7.68481,3.93359,-0.248291
1088,2.21192e-34,0.0710375,0.0807793,9.89468,1.63178,0.131965,-5.07788,3.93774,-0.246094
1089,2.21383e-34,0.0697605,0.0887156,9.88741,1.72827,0.0893425,4.35645,3.94385,-0.24707
1090,2.21574e-34,0.0473843,0.0807757,9.86913,1.60642,0.058964,-1.93726,3.94263,-0.247803
1091,2.21766e-34,0.0451279,0.0903126,9.89557,1.67481,0.103943,0.530762,3.94116,-0.242676
1092,2.21957e-34,0.0467457,0.0805105,9.86473,1.64372,0.177225,-6.3894,3.9375,-0.246338
1093,2.22148e-34,0.0512698,0.0765817,9.87788,1.64564,0.0401631,-0.384033,3.927,-0.241211
1094,2.2234e-34,0.0519305,0.080294,9.86229,1.70496,-0.0300839,3.38208,3.93506,-0.24585
1095,2.22531e-34,0.0491194,0.0981732,9.86943,1.70342,0.107016,5.62061,3.93994,-0.24292
1096,2.22722e-34,0.0629339,0.0772514,9.89298,1.66608,0.0829901,-0.831299,3.93945,-0.241699
1097,2.22913e-34,0.0527026,0.0837262,9.87656,1.68416,0.0311469,7.94287,3.93726,-0.247314
1098,2.23105e-34,0.0642625,0.0695425,9.87547,1.69366,0.0368333,-2.98511,3.94165,-0.23999
1099,2.23296e-34,0.0446546,0.0820368,9.8782,1.68683,0.0788406,-2.62012,3.94336,-0.248779
1100,2.23487e-34,0.0579843,0.0775734,9.89918,1.69561,0.113625,-4.87085,3.9397,-0.241943
1101,2.23679e-34,0.0429996,0.0868214,9.86302,1.5951,0.09362,4.72681,3.94165,-0.243408
1102,2.2387e-34,0.0514981,0.0885634,9.87838,1.74425,0.132195,4.46533,3.94092,-0.247803
1103,2.24061e-34,0.0491392,0.0858218,9.87218,1.68334,0.211907,-4.39819,3.93896,-0.245117
1104,2.24253e-34,0.0841904,0.0902379,9.86253,1.60319,0.218848,-2.12329,3.93311,-0.246338
1105,2.24444e-34,0.0707015,0.0937391,9.87719,1.64543,0.196231,-7.91943,3.94409,-0.242188
1106,2.24635e-34,0.0602956,0.113449,9.89513,1.62791,0.105659,-4.13403,3.93774,-0.246826
1107,2.24827e-34,0.0583711,0.0804238,9.86298,1.6732,0.128174,6.7749,3.93994,-0.245361
1108,2.25018e-34,0.0690226,0.0848935,9.87392,1.66546,0.129301,-4.85645,3.93701,-0.243408
1109,2.25209e-34,0.0637868,0.0697195,9.87104,1.69249,0.191927,6.5647,3.93994,-0.248779
1110,2.25401e-34,0.0515027,0.0849009,9.87879,1.68485,0.124793,0.69043,3.93945,-0.244629
1111,2.25592e-34,0.04874,0.0791445,9.88289,1.66674,0.0975902,-2.77515,3.94165,-0.249268
1112,2.25783e-34,0.0562813,0.0701477,9.89938,1.61659,0.134552,7.03149,3.94409,-0.242676
1113,2.25975e-34,0.0490682,0.0684455,9.89032,1.59029,0.145847,-1.39258,3.93555,-0.243164
1114,2.26166e-34,0.0585461,0.0735744,9.87502,1.70575,0.0533801,3.96021,3.93433,-0.247314
1115,2.26357e-34,0.0683062,0.0892909,9.88475,1.65885,0.124255,5.53052,3.93677,-0.243652
1116,2.26549e-34,0.0379792,0.0777444,9.87304,1.65048,0.142338,-5.71362,3.94214,-0.247314
1117,2.2674e-34,0.0472445,0.0846253,9.88649,1.57517,0.108604,3.104,3.93896,-0.244629
1118,2.26931e-34,0.0501009,0.0811006,9.8792,1.62182,0.19577,-3.03418,3.93945,-0.247803
1119,2.27122e-34,0.0485099,0.0960002,9.8966,1.62125,0.139495,-5.07935,3.93872,-0.246826
1120,2.27314e-34,0.0655171,0.0830315,9.89528,1.66434,0.142543,-5.44775,3.93945,-0.241455
1121,2.27505e-34,0.0363884,0.0893399,9.88626,1.65737,0.239416,7.1582,3.93604,-0.247803
1122,2.27696e-34,0.0459561,0.0898644,9.86216,1.67661,0.193003,-2.82349,3.93848,-0.245117
1123,2.27888e-34,0.0514576,0.0756224,9.87254,1.57889,0.0956436,-3.93188,3.9436,-0.248291
1124,2.28079e-34,0.0479492,0.0839301,9.8727,1.62873,0.233448,6.61914,3.93872,-0.244629
1125,2.2827e-34,0.0569488,0.0875393,9.88004,1.62177,0.0320434,0.900635,3.93896,-0.245117
1126,2.28462e-34,0.0707602,0.0810256,9.88069,1.74548,0.129301,3.95654,3.93726,-0.247314
1127,2.28653e-34,0.0496017,0.0699373,9.87285,1.6942,0.0622426,7.24683,3.9397,-0.240723
1128,2.28844e-34,0.0543507,0.0914018,9.8809,1.64167,0.144106,7.6687,3.93823,-0.249268
1129,2.29036e-34,0.0533287,0.0900821,9.89517,1.75393,0.200636,7.16235,3.93311,-0.239014
1130,2.29227e-34,0.0550448,0.0853606,9.87631,1.70998,0.0887533,-7.83398,3.92749,-0.247314
1131,2.29418e-34,0.0467637,0.0872932,9.89916,1.69994,0.0925186,-1.54248,3.93042,-0.240967
1132,2.2961e-34,0.0449217,0.0902391,9.89329,1.61134,0.159039,-5.8501,3.93481,-0.244629
1133,2.29801e-34,0.0432977,0.093696,9.88343,1.64446,0.160627,-2.96631,3.93604,-0.247803
1134,2.29992e-34,0.0414076,0.0942325,9.87629,1.63339,0.0981281,6.6731,3.9375,-0.242188
1135,2.30184e-34,0.0625859,0.0866855,9.87544,1.70547,0.084655,-3.61035,3.93872,-0.247803
1136,2.30375e-34,0.0775726,0.0750476,9.89227,1.48947,0.142466,-7.49194,3.93823,-0.246094
1137,2.30566e-34,0.0587773,0.0827102,9.90445,1.61196,0.0520737,2.75439,3.93408,-0.242432
1138,2.30757e-34,0.0630725,0.0898388,9.88977,1.68165,0.232552,0.530029,3.94165,-0.24585
1139,2.30949e-34,0.0474955,0.0789467,9.8781,1.70642,0.112549,-7.12817,3.94092,-0.241699
1140,2.3114e-34,0.0549285,0.086662,9.87861,1.5783,0.215672,5.14624,3.94165,-0.248779
1141,2.31331e-34,0.0579595,0.0776762,9.8666,1.64392,0.0908025,3.86108,3.92993,-0.241211
1142,2.31523e-34,0.064569,0.0766735,9.87712,1.63209,0.0840915,1.65869,3.92944,-0.248291
1143,2.31714e-34,0.0613459,0.0919953,9.8886,1.61457,0.169028,-6.86572,3.94067,-0.244873
1144,2.31905e-34,0.0518398,0.089545,9.88223,1.60104,0.0962839,0.317627,3.9436,-0.244385
1145,2.32097e-34,0.0721735,0.082719,9.90403,1.66856,0.183859,-7.33594,3.93945,-0.250244
1146,2.32288e-34,0.0504312,0.082621,9.88164,1.72494,0.180683,2.4751,3.93848,-0.245117
1147,2.32479e-34,0.0495126,0.095595,9.87103,1.60576,0.198331,-0.101074,3.94238,-0.247803
1148,2.32671e-34,0.0520068,0.105089,9.86329,1.62725,0.134885,-1.91772,3.93604,-0.241455
1149,2.32862e-34,0.0575942,0.0688096,9.87051,1.65368,0.123717,5.17041,3.93164,-0.246338
1150,2.33053e-34,0.0466377,0.0773276,9.88196,1.59884,0.0343743,7.87427,3.94165,-0.246338
1151,2.33245e-34,0.0524203,0.103351,9.87332,1.67612,0.116135,6.14844,3.9375,-0.241699
1152,2.33436e-34,0.0643107,0.0686404,9.86115,1.70127,0.12802,-0.568115,3.93872,-0.246826
1153,2.33627e-34,0.0533125,0.0830925,9.88618,1.64848,0.0610131,7.87671,3.9397,-0.239258
1154,2.33819e-34,0.0725326,0.0908244,9.87146,1.79855,0.106709,-0.0805664,3.9353,-0.245361
1155,2.3401e-34,0.0462181,0.122874,9.89894,1.6848,0.163342,-7.33398,3.93799,-0.24292
1156,2.34201e-34,0.0491973,0.103216,9.87037,1.59643,0.0986916,-5.26953,3.93213,-0.240479
1157,2.34392e-34,0.0542019,0.0897684,9.88313,1.63191,0.223561,-7.07861,3.94312,-0.244385
1158,2.34584e-34,0.0557564,0.0842891,9.87715,1.59272,0.166108,4.85376,3.93311,-0.241699
1159,2.34775e-34,0.0560737,0.071493,9.87064,1.76234,0.0660079,-2.12329,3.93311,-0.247314
1160,2.34966e-34,0.0598839,0.071917,9.85793,1.68314,0.106145,-0.52124,3.94336,-0.24292
1161,2.35158e-34,0.061364,0.0806626,9.88791,1.56334,0.103712,-4.48633,3.9353,-0.246338
1162,2.35349e-34,0.0734598,0.0693728,9.86394,1.76034,0.126227,-6.63135,3.93066,-0.246338
1163,2.3554e-34,0.0387232,0.087907,9.89514,1.77407,0.0301992,3.96069,3.93433,-0.242188
1164,2.35732e-34,0.0478423,0.0817912,9.87482,1.82163,0.0570173,-2.9126,3.93481,-0.246338
1165,2.35923e-34,0.0567423,0.0831629,9.87336,1.6846,0.178557,-0.15625,3.94458,-0.240723
1166,2.36114e-34,0.058335,0.0942862,9.89752,1.77435,0.0869859,6.40796,3.9397,-0.242432
1167,2.36306e-34,0.0641014,0.0862755,9.86251,1.72335,0.0459775,5.26929,3.93604,-0.248291
1168,2.36497e-34,0.0500007,0.0886901,9.89096,1.70952,0.183295,0.495117,3.93677,-0.243408
1169,2.36688e-34,0.030393,0.111383,9.86198,1.68583,0.177737,-6.70508,3.93848,-0.248291
1170,2.3688e-34,0.0612572,0.0903839,9.8634,1.6286,0.135679,-3.84985,3.92944,-0.240479
1171,2.37071e-34,0.047568,0.104753,9.86159,1.67084,0.0633696,3.51196,3.94775,-0.246826
1172,2.37262e-34,0.0621255,0.068899,9.87287,1.72699,0.161651,-6.27173,3.93579,-0.242676
1173,2.37454e-34,0.0611834,0.0815638,9.86797,1.73134,0.0891375,-0.80249,3.92603,-0.249023
1174,2.37645e-34,0.0838356,0.0845716,9.85086,1.70791,0.0348097,-5.55078,3.93799,-0.245361
1175,2.37836e-34,0.067639,0.0841717,9.88202,1.73577,0.129275,-2.28174,3.93384,-0.240234
1176,2.38027e-34,0.0605757,0.0931149,9.88198,1.68314,0.167696,-7.26123,3.93066,-0.24585
1177,2.38219e-34,0.0651777,0.094947,9.90125,1.71008,0.128968,-1.06396,3.92529,-0.23877
1178,2.3841e-34,0.0491617,0.0916351,9.8773,1.60417,0.131811,1.50684,3.92529,-0.248291
1179,2.38601e-34,0.0663481,0.0923706,9.88999,1.72084,0.207219,-5.5498,3.9375,-0.243896
1180,2.38793e-34,0.0453668,0.0825675,9.87425,1.76869,0.209166,-1.09326,3.93921,-0.245117
1181,2.38984e-34,0.0674818,0.0906657,9.88048,1.66265,0.10758,6.98267,3.94141,-0.247803
1182,2.39175e-34,0.04399,0.0930943,9.87386,1.56972,0.0982818,2.36865,3.93994,-0.242188
1183,2.39367e-34,0.0525907,0.07223,9.8756,1.75693,0.0838354,-4.85645,3.93701,-0.249756
1184,2.39558e-34,0.0446831,0.101814,9.9,1.75099,0.0996394,7.19751,3.9375,-0.243408
1185,2.39749e-34,0.0668676,0.103517,9.89094,1.59226,0.0841428,4.51831,3.94067,-0.248291
1186,2.39941e-34,0.0530094,0.0904744,9.88001,1.63491,0.0681595,-1.35596,3.93945,-0.247803
1187,2.40132e-34,0.0566931,0.0911599,9.86907,1.67702,0.170924,7.11353,3.93042,-0.240234
1188,2.40323e-34,0.0646643,0.100598,9.86322,1.65998,0.144413,-1.82764,3.93921,-0.244385
1189,2.40515e-34,0.0658173,0.0963133,9.86708,1.72397,-0.0210421,-2.50854,3.93848,-0.241211
1190,2.40706e-34,0.0345164,0.0921538,9.89925,1.68004,0.130684,1.49658,3.93311,-0.24585
1191,2.40897e-34,0.0397298,0.101757,9.86663,1.59961,0.152712,6.52881,3.93604,-0.244873
1192,2.41089e-34,0.05616,0.0849157,9.87243,1.65809,0.0987941,2.68457,3.93896,-0.24292
1193,2.4128e-34,0.0640797,0.0912692,9.85603,1.59367,0.252403,-3.66431,3.93945,-0.244873
1194,2.41471e-34,0.0714904,0.0872681,9.88279,1.63534,0.218592,0.585449,3.93945,-0.242188
1195,2.41662e-34,0.0406664,0.0822806,9.8999,1.67474,0.100869,4.46729,3.93945,-0.24585
1196,2.41854e-34,0.0524664,0.0968137,9.86139,1.58701,0.0195693,-6.42944,3.93652,-0.24585
1197,2.42045e-34,0.0679806,0.0835381,9.85278,1.62361,0.14011,0.250488,3.92334,-0.247314
1198,2.42236e-34,0.0551396,0.0985958,9.86475,1.60814,0.173229,6.98267,3.94141,-0.246826
1199,2.42428e-34,0.0793679,0.0739389,9.89913,1.57771,0.157656,-4.47559,3.92651,-0.240723
1200,2.42619e-34,0.0654221,0.0708411,9.84964,1.61895,0.098538,-7.94995,3.93579,-0.24585
1201,2.4281e-34,0.0434932,0.0907742,9.88236,1.6223,0.127815,4.95898,3.93262,-0.242676
1202,2.43002e-34,0.0355878,0.0875662,9.87435,1.6034,0.268668,1.9519,3.9375,-0.247314
1203,2.43193e-34,0.0560512,0.0907865,9.86473,1.60399,0.140135,-7.85938,3.93848,-0.24292
1204,2.43384e-34,0.0546406,0.0848756,9.88942,1.5637,0.191902,2.85742,3.93555,-0.243896
1205,2.43576e-34,0.0798329,0.0865065,9.89559,1.50312,0.117902,-5.0293,3.94043,-0.247314
1206,2.43767e-34,0.0779497,0.0876249,9.87743,1.63403,0.181374,4.39429,3.92358,-0.243652
1207,2.43958e-34,0.0717931,0.0811347,9.87931,1.53972,0.266055,-6.46924,3.927,-0.24585
1208,2.4415e-34,0.0524861,0.0904264,9.85086,1.67899,0.122948,-5.6853,3.9292,-0.244385
1209,2.44341e-34,0.0647303,0.0883207,9.90395,1.65714,0.09654,3.79932,3.93701,-0.245361
1210,2.44532e-34,0.070979,0.069794,9.88156,1.6828,0.112447,-5.14087,3.9458,-0.245361
1211,2.44724e-34,0.053383,0.0842123,9.88352,1.69238,0.10215,-6.11377,3.93604,-0.242676
1212,2.44915e-34,0.0562416,0.0789838,9.8782,1.67399,0.263775,5.96094,3.92896,-0.246826
1213,2.45106e-34,0.066202,0.118122,9.88249,1.59233,0.291567,-3.8772,3.94189,-0.240723
1214,2.45298e-34,0.0706721,0.0892565,9.88237,1.64361,0.123537,-2.49536,3.93677,-0.247314
1215,2.45489e-34,0.0547429,0.0987406,9.88194,1.67953,0.0147538,-5.81592,3.94019,-0.244385
1216,2.4568e-34,0.0512718,0.082244,9.87605,1.73127,0.195949,5.19043,3.94775,-0.243164
1217,2.45871e-34,0.0673784,0.113881,9.85021,1.66915,0.158603,7.34839,3.94263,-0.249268
1218,2.46063e-34,0.0459424,0.0855694,9.91411,1.5743,0.195642,7.00244,3.93481,-0.241699
1219,2.46254e-34,0.0328897,0.10084,9.88198,1.59267,0.146718,-1.67261,3.94092,-0.249268
1220,2.46445e-34,0.0565218,0.0938811,9.87286,1.58316,0.136319,4.53589,3.93555,-0.241943
1221,2.46637e-34,0.0367951,0.0873645,9.86831,1.60309,0.258294,-4.92383,3.93994,-0.240479
1222,2.46828e-34,0.0576344,0.0910466,9.89872,1.67059,0.156324,-5.11377,3.93335,-0.246826
1223,2.47019e-34,0.0506278,0.0898683,9.88565,1.56124,0.152482,3.72827,3.94287,-0.241211
1224,2.47211e-34,0.0552467,0.0791117,9.91326,1.65389,0.141339,2.36621,3.94141,-0.247803
1225,2.47402e-34,0.0514752,0.0908531,9.87972,1.66879,0.240364,-4.29395,3.93994,-0.238037
1226,2.47593e-34,0.0559348,0.0809433,9.87204,1.62781,0.170437,5.99072,3.93774,-0.245361
1227,2.47785e-34,0.0469607,0.0855623,9.91521,1.74038,0.182194,1.89355,3.94214,-0.24585
1228,2.47976e-34,0.0614697,0.0745123,9.88124,1.63257,0.167594,5.25513,3.93872,-0.244873
1229,2.48167e-34,0.0385649,0.0905554,9.88065,1.62425,0.141314,1.2417,3.92749,-0.24585
1230,2.48359e-34,0.0709848,0.0787027,9.87122,1.5546,0.132067,7.30078,3.93896,-0.241699
1231,2.4855e-34,0.0630258,0.103487,9.87252,1.66349,0.254068,2.48779,3.93726,-0.245361
1232,2.48741e-34,0.0436395,0.0754983,9.88095,1.49487,0.300378,-6.95337,3.93604,-0.244629
1233,2.48933e-34,0.0459287,0.0911984,9.88129,1.60909,0.0792505,2.729,3.94507,-0.248291
1234,2.49124e-34,0.0631092,0.079936,9.87991,1.61088,0.0495892,7.19751,3.9375,-0.246826
1235,2.49315e-34,0.0703364,0.0925966,9.85376,1.64951,0.157886,0.107178,3.94409,-0.242676
1236,2.49506e-34,0.0490883,0.09688,9.87787,1.66831,0.183475,-0.380371,3.92407,-0.247803
1237,2.49698e-34,0.0606517,0.09093,9.88626,1.71308,0.206732,-1.60229,3.93555,-0.242676
1238,2.49889e-34,0.042316,0.0868693,9.86508,1.64464,0.0935432,-3.54443,3.93677,-0.243408
1239,2.5008e-34,0.0458084,0.0795806,9.89108,1.62679,0.129634,2.54565,3.93311,-0.246826
1240,2.50272e-34,0.0574205,0.0797054,9.86308,1.62666,0.226865,-1.56958,3.94238,-0.243408
1241,2.50463e-34,0.0546351,0.103349,9.88139,1.68585,0.216799,-7.5249,3.93188,-0.245361
1242,2.50654e-34,0.0453806,0.0987719,9.86231,1.75335,0.123051,-6.91748,3.94043,-0.240723
1243,2.50846e-34,0.0645576,0.0865775,9.85174,1.65906,0.088574,-7.96533,3.93945,-0.248779
1244,2.51037e-34,0.0471924,0.0789045,9.89489,1.7867,0.0947214,0.766602,3.92969,-0.24292
1245,2.51228e-34,0.0535131,0.0787619,9.86319,1.72922,0.122564,-0.344727,3.93652,-0.243408
1246,2.5142e-34,0.0458766,0.0625291,9.86888,1.71277,0.179607,-1.62109,3.94165,-0.247314
1247,2.51611e-34,0.0590178,0.0847641,9.89935,1.60343,0.201815,-2.77002,3.93774,-0.242676
1248,2.51802e-34,0.0483821,0.0970233,9.85969,1.69769,0.127687,0.460205,3.92334,-0.247803
1249,2.51994e-34,0.0617956,0.0833349,9.89933,1.66613,0.133988,-4.29468,3.94043,-0.241943
1250,2.52185e-34,0.0569991,0.0811214,9.86425,1.65199,0.145361,6.77539,3.93945,-0.243408
1251,2.52376e-34,0.0711617,0.0810929,9.91693,1.63411,0.115008,2.36938,3.93896,-0.244385
1252,2.52568e-34,0.0505899,0.0915433,9.89306,1.72076,0.107375,-4.48438,3.93335,-0.241943
1253,2.52759e-34,0.0612078,0.0988873,9.86283,1.69469,0.141186,-0.67627,3.94116,-0.248779
1254,2.5295e-34,0.0691794,0.100047,9.8863,1.72345,0.154864,-1.35913,3.94189,-0.243164
1255,2.53141e-34,0.0727906,0.0786808,9.87269,1.65821,0.210805,-5.08252,3.94116,-0.246826
1256,2.53333e-34,0.0475069,0.0726404,9.8808,1.68736,0.217977,-1.98413,3.93848,-0.243408
1257,2.53524e-34,0.0586001,0.0786684,9.88361,1.67645,0.100638,3.9939,3.94067,-0.244873
1258,2.53715e-34,0.0418166,0.0676726,9.90298,1.69615,0.0736409,-4.90356,3.93335,-0.246338
1259,2.53907e-34,0.0621611,0.0771973,9.86448,1.65007,0.129813,6.04224,3.93848,-0.239746
1260,2.54098e-34,0.0719474,0.0957733,9.88253,1.63124,0.122513,2.26318,3.93994,-0.243408
1261,2.54289e-34,0.0562471,0.0879376,9.88171,1.63232,0.0575296,4.22363,3.93408,-0.238037
1262,2.54481e-34,0.05919,0.0553901,9.86389,1.7013,0.107247,4.12061,3.93262,-0.245361
1263,2.54672e-34,0.0701083,0.0674349,9.88591,1.66951,0.0948495,-2.09302,3.94141,-0.241943
1264,2.54863e-34,0.0598621,0.0739797,9.87106,1.62399,0.108041,4.15186,3.93994,-0.241943
1265,2.55055e-34,0.075765,0.0846186,9.90312,1.70091,0.129403,-6.86816,3.94263,-0.248779
1266,2.55246e-34,0.0578768,0.103187,9.87479,1.7099,0.147999,-3.48779,3.93359,-0.242188
1267,2.55437e-34,0.0505849,0.0706772,9.89084,1.46639,0.14782,-0.385254,3.92798,-0.248291
1268,2.55629e-34,0.0577449,0.0986608,9.89492,1.65207,0.101945,-6.28735,3.93994,-0.243408
1269,2.5582e-34,0.0688935,0.0774655,9.88516,1.70622,-0.010822,3.67847,3.94116,-0.240479
1270,2.56011e-34,0.0580682,0.0713255,9.90314,1.67978,0.110782,5.26978,3.93604,-0.243896
1271,2.56203e-34,0.0577727,0.0923958,9.90105,1.6212,0.151739,-5.60669,3.94067,-0.242188
1272,2.56394e-34,0.0712208,0.0790331,9.89269,1.70086,0.145694,-1.72339,3.9397,-0.24585
1273,2.56585e-34,0.0750098,0.10562,9.89661,1.61339,0.0419049,-5.01367,3.93677,-0.242188
1274,2.56776e-34,0.058129,0.0732964,9.86706,1.62791,0.1272,-0.496582,3.93237,-0.248291
1275,2.56968e-34,0.0623195,0.0859081,9.87721,1.72445,0.0380115,3.51465,3.9458,-0.243896
1276,2.57159e-34,0.0664619,0.0894184,9.86347,1.67123,0.138675,4.98315,3.9458,-0.244141
1277,2.5735e-34,0.076747,0.103212,9.85994,1.62445,0.0564025,6.03516,3.94385,-0.247803
1278,2.57542e-34,0.0454307,0.0930925,9.87127,1.70775,0.210677,-0.747314,3.92383,-0.241211
1279,2.57733e-34,0.0732709,0.0868905,9.88966,1.64128,0.0496404,-7.96826,3.94141,-0.243896
1280,2.57924e-34,0.0660388,0.0741113,9.89441,1.67504,0.11529,3.62915,3.93848,-0.242432
1281,2.58116e-34,0.0478518,0.0958389,9.88227,1.63278,0.129736,1.84692,3.9375,-0.245117
1282,2.58307e-34,0.033405,0.074074,9.86287,1.65701,0.101868,-4.56006,3.94263,-0.24585
1283,2.58498e-34,0.0547509,0.0773288,9.87822,1.66172,0.139418,5.86865,3.91968,-0.23877
1284,2.5869e-34,0.0371695,0.0933408,9.88517,1.64354,0.112728,-0.724365,3.93799,-0.248779
1285,2.58881e-34,0.047606,0.0952206,9.85079,1.6243,0.0644967,-7.80859,3.9397,-0.243164
1286,2.59072e-34,0.0669454,0.0848181,9.88391,1.67999,0.197691,-3.01392,3.93237,-0.246338
1287,2.59264e-34,0.0674751,0.0732602,9.87683,1.66234,0.224944,3.47217,3.93823,-0.244385
1288,2.59455e-34,0.0733113,0.0752552,9.86547,1.67258,0.0626524,-5.91943,3.93921,-0.243896
1289,2.59646e-34,0.0650644,0.0860574,9.85881,1.60161,0.055506,-7.18433,3.9436,-0.247314
1290,2.59838e-34,0.0510059,0.0746085,9.85348,1.63427,0.0878312,3.84009,3.93799,-0.240723
1291,2.60029e-34,0.0492365,0.0815901,9.90385,1.73752,0.158193,-6.17944,3.9375,-0.244873
1292,2.6022e-34,0.0392565,0.0865066,9.87794,1.59807,0.124536,2.15112,3.94531,-0.240234
1293,2.60411e-34,0.0436741,0.0847778,9.89083,1.69851,0.151098,-6.15381,3.92651,-0.242432
1294,2.60603e-34,0.0435329,0.0917954,9.89896,1.66749,0.167184,2.81323,3.92896,-0.246338
1295,2.60794e-34,0.0523731,0.0870286,9.85059,1.59441,0.112831,-1.60229,3.93555,-0.240967
1296,2.60985e-34,0.0636622,0.0789152,9.89905,1.59397,0.118312,-4.71387,3.93994,-0.246826
1297,2.61177e-34,0.0561482,0.0902158,9.87099,1.63129,0.210703,-4.71729,3.94238,-0.241211
1298,2.61368e-34,0.0574723,0.0923898,9.87683,1.67489,0.188649,3.59497,3.93311,-0.243896
1299,2.61559e-34,0.0610922,0.0848756,9.86012,1.53655,0.123845,5.51758,3.93848,-0.240479
1300,2.61751e-34,0.059576,0.08395,9.87912,1.67171,0.0695683,4.41577,3.93872,-0.24292
1301,2.61942e-34,0.0664617,0.0727975,9.89901,1.60079,0.169284,6.84521,3.93457,-0.24585
1302,2.62133e-34,0.0542544,0.0588133,9.88681,1.61744,0.116468,-6.44458,3.9397,-0.241699
1303,2.62325e-34,0.0582599,0.0818332,9.87434,1.63491,0.178224,5.06616,3.93115,-0.243896
1304,2.62516e-34,0.067716,0.0777013,9.85847,1.58153,0.198741,-0.121582,3.92676,-0.243896
1305,2.62707e-34,0.0554304,0.0700569,9.89499,1.62978,0.1543,0.996338,3.9458,-0.243896
1306,2.62899e-34,0.0671362,0.111045,9.869,1.63355,0.22707,1.88916,3.94507,-0.246338
1307,2.6309e-34,0.0574989,0.0820524,9.89452,1.737,0.112062,5.35864,3.9397,-0.240723
1308,2.63281e-34,0.0687745,0.0796507,9.87697,1.64295,-0.000678777,4.77881,3.94189,-0.246826
1309,2.63473e-34,0.0658293,0.0809023,9.90233,1.66913,-0.0131273,-3.5083,3.94067,-0.237305
1310,2.63664e-34,0.0652411,0.0951257,9.90351,1.57269,0.183321,-2.35376,3.94019,-0.241455
1311,2.63855e-34,0.0699262,0.0831089,9.88509,1.59705,0.0908025,5.95044,3.93677,-0.240479
1312,2.64046e-34,0.0636675,0.081192,9.88131,1.6805,0.135679,-5.34082,3.93799,-0.242432
1313,2.64238e-34,0.0448296,0.0778106,9.87529,1.69495,0.0909818,1.8457,3.93848,-0.246338
1314,2.64429e-34,0.0517815,0.092563,9.8617,1.60719,0.189981,-1.33911,3.9353,-0.240234
1315,2.6462e-34,0.0618285,0.085748,9.86091,1.60542,0.132272,3.78564,3.93921,-0.249268
1316,2.64812e-34,0.0455636,0.0721507,9.86715,1.59392,0.152891,0.969727,3.93457,-0.245605
1317,2.65003e-34,0.0405057,0.0814646,9.90403,1.65716,0.0812996,2.36499,3.94238,-0.247314
1318,2.65194e-34,0.0414855,0.089697,9.88671,1.6408,0.200944,-2.2981,3.93799,-0.248291
1319,2.65386e-34,0.0654689,0.0781061,9.89344,1.74476,0.151329,1.93042,3.92236,-0.246094
1320,2.65577e-34,0.0569871,0.0891379,9.84615,1.74464,0.144951,5.9502,3.93677,-0.245361
1321,2.65768e-34,0.0543229,0.0801589,9.88078,1.68209,0.0816838,-4.16895,3.93286,-0.240967
1322,2.6596e-34,0.0669723,0.0931658,9.87089,1.49538,0.171077,-7.57886,3.93311,-0.246826
1323,2.66151e-34,0.0826573,0.0885619,9.8605,1.60832,0.171103,1.28442,3.93506,-0.24585
1324,2.66342e-34,0.0659204,0.107789,9.90095,1.70714,0.0747936,5.93384,3.94141,-0.24585
1325,2.66534e-34,0.0773515,0.102342,9.86895,1.66434,0.148332,2.78589,3.94141,-0.247803
1326,2.66725e-34,0.0672797,0.0795339,9.87141,1.68816,0.161088,0.398682,3.93042,-0.240234
1327,2.66916e-34,0.0453882,0.078776,9.85484,1.65568,0.137472,0.688721,3.94092,-0.248779
1328,2.67108e-34,0.0725707,0.0797355,9.85943,1.71659,0.0668275,4.69775,3.93188,-0.243896
1329,2.67299e-34,0.0699622,0.0880834,9.88829,1.69897,0.107067,-4.40112,3.94141,-0.244873
1330,2.6749e-34,0.0568582,0.0769002,9.86688,1.56728,0.0878568,-4.18726,3.93848,-0.246338
1331,2.67682e-34,0.0600452,0.0968101,9.86175,1.64994,0.151098,-5.31616,3.92749,-0.239746
1332,2.67873e-34,0.0498196,0.0867997,9.86308,1.5782,0.0457214,-0.989014,3.9397,-0.244385
1333,2.68064e-34,0.0580382,0.102794,9.87209,1.58921,0.108195,4.90796,3.93188,-0.240967
1334,2.68255e-34,0.0568041,0.0561794,9.86397,1.5973,0.2033,5.45972,3.94263,-0.241455
1335,2.68447e-34,0.0492066,0.0807079,9.87578,1.68521,0.00217721,6.26953,3.93335,-0.24292
1336,2.68638e-34,0.052351,0.0717761,9.86027,1.69953,0.0864993,0.186035,3.93237,-0.242432
1337,2.68829e-34,0.0511755,0.0747939,9.88514,1.64262,0.148511,-6.13574,3.94409,-0.246338
1338,2.69021e-34,0.0542302,0.0891742,9.88115,1.60499,0.0477449,-7.65234,3.94043,-0.240723
1339,2.69212e-34,0.0435019,0.0831475,9.89348,1.60891,0.154428,-5.6582,3.93994,-0.246338
1340,2.69403e-34,0.0757963,0.106811,9.86925,1.63137,0.163701,-7.59692,3.93823,-0.243896
1341,2.69595e-34,0.0565069,0.083605,9.87372,1.67289,0.0645735,3.99634,3.93872,-0.245361
1342,2.69786e-34,0.067183,0.0862127,9.87764,1.63242,0.158065,2.55371,3.92725,-0.244873
1343,2.69977e-34,0.063117,0.0778251,9.90242,1.59692,0.115059,1.89502,3.94067,-0.238281
1344,2.70169e-34,0.0588485,0.0810958,9.86919,1.65655,0.174433,3.44409,3.92798,-0.244873
1345,2.7036e-34,0.044741,0.0709204,9.87444,1.60422,0.168465,-0.758789,3.93262,-0.240723
1346,2.70551e-34,0.0528549,0.0768436,9.89331,1.73846,0.17912,1.21436,3.93994,-0.241943
1347,2.70743e-34,0.0736957,0.0909198,9.86571,1.57743,0.137548,6.94824,3.93604,-0.244385
1348,2.70934e-34,0.0593412,0.0885809,9.87556,1.64095,0.158911,4.67578,3.94043,-0.241455
1349,2.71125e-34,0.035099,0.0654628,9.87351,1.541,0.160909,-2.56567,3.94165,-0.247314
1350,2.71317e-34,0.0550201,0.0866101,9.86611,1.59618,0.119311,0.376709,3.93848,-0.241455
1351,2.71508e-34,0.0633673,0.0870143,9.88732,1.57236,0.0954386,-3.32983,3.93286,-0.248779
1352,2.71699e-34,0.0678341,0.0805715,9.87945,1.66572,0.16014,4.38403,3.9314,-0.245117
1353,2.7189e-34,0.0613151,0.0864502,9.86465,1.65268,0.0773294,-0.658691,3.93604,-0.243896
1354,2.72082e-34,0.0717147,0.0827799,9.91437,1.60184,0.088907,-1.12915,3.9353,-0.248779
1355,2.72273e-34,0.0578292,0.0791286,9.86862,1.60834,0.154684,-7.396,3.94507,-0.240723
1356,2.72464e-34,0.0554611,0.0799711,9.87489,1.67279,0.0811715,-1.76172,3.93726,-0.247803
1357,2.72656e-34,0.0653253,0.0720925,9.87652,1.72614,0.0941067,-2.64087,3.92773,-0.241211
1358,2.72847e-34,0.0565664,0.0933994,9.86034,1.66208,0.151918,3.70093,3.93262,-0.243408
1359,2.73038e-34,0.0496066,0.0824142,9.859,1.72271,0.160371,-4.79468,3.92993,-0.241455
1360,2.7323e-34,0.0587174,0.0893582,9.86918,1.64951,0.0354245,1.28857,3.93213,-0.242676
1361,2.73421e-34,0.057657,0.0871508,9.87843,1.67407,0.181349,0.715576,3.92896,-0.247803
1362,2.73612e-34,0.0413758,0.0969512,9.88347,1.63452,0.142953,5.41357,3.93799,-0.240967
