timestamp_ms,acc_x,acc_y,acc_z,gyr_x,gyr_y,gyr_z,mag_x,mag_y,mag_z
0,-1.64567e-37,0,0,0,0,0,0,0,-0.529297
1,-1.6466e-37,-0.0763065,0.0266944,9.66104,0.419625,-0.252505,1.88867,3.91431,-0.534424
2,-1.64754e-37,-0.0887811,0.0327815,9.62991,0.429487,-0.2033,2.46387,3.91553,-0.526855
3,-1.64847e-37,-0.0774939,0.0370732,9.69033,0.262251,-0.398353,2.82422,3.92065,-0.533936
4,-1.64941e-37,-0.0860702,0.0392691,9.69217,0.311405,-0.304963,-5.00903,3.90259,-0.529785
5,-1.65034e-37,-0.081993,0.036036,9.6647,0.368845,-0.285266,3.08521,3.92188,-0.531494
6,-1.65127e-37,-0.0541181,0.0365506,9.66468,0.237636,-0.265568,7.71875,3.90869,-0.531494
7,-1.65221e-37,-0.0738886,0.0350702,9.66287,0.250776,-0.265568,5.82056,3.9165,-0.528076
8,-1.65314e-37,-0.0753483,0.0464222,9.66836,0.273726,-0.270486,-7.03345,3.91748,-0.532715
9,-1.65408e-37,-0.0804549,0.0449767,9.67569,0.14919,-0.162241,-7.66846,3.92139,-0.529053
10,-1.65501e-37,-0.0692538,0.0286829,9.65556,0.195014,-0.347508,5.66431,3.91528,-0.530518
11,-1.65594e-37,-0.0889102,0.0180039,9.6684,0.252415,-0.163957,-5.4292,3.90259,-0.531006
12,-1.65688e-37,-0.0776587,0.0440047,9.68485,0.213046,-0.293437,5.14819,3.90894,-0.530273
13,-1.65781e-37,-0.0791104,0.0351276,9.6574,0.249137,-0.293437,-3.67749,3.91846,-0.534424
14,-1.65875e-37,-0.065878,0.0318159,9.66105,0.344294,-0.103328,-5.0332,3.91211,-0.529053
15,-1.65968e-37,-0.0730734,0.0322808,9.62444,0.301518,-0.400043,2.78687,3.90918,-0.536133
16,-1.66062e-37,-0.0852977,0.0400702,9.65557,0.217964,-0.358958,1.03931,3.92212,-0.531494
17,-1.66155e-37,-0.0756413,0.0220665,9.6684,0.2622,-0.313108,-1.41333,3.91187,-0.531494
18,-1.66248e-37,-0.0898683,0.0279319,9.64827,0.314658,-0.380371,0.313232,3.91577,-0.529785
19,-1.66342e-37,-0.0782807,0.0357499,9.70684,0.265479,-0.419638,-6.09814,3.92383,-0.523926
20,-1.66435e-37,-0.0758845,0.0434106,9.66473,0.367218,-0.213187,0.0490723,3.91699,-0.533936
21,-1.66529e-37,-0.0628093,0.0493548,9.62442,0.347495,-0.370484,6.06689,3.92798,-0.530273
22,-1.66622e-37,-0.0750478,0.0371378,9.69403,0.334355,-0.383599,-4.21606,3.92871,-0.529297
23,-1.66715e-37,-0.067201,0.0521943,9.65557,0.41317,-0.241004,-7.83594,3.92896,-0.533203
24,-1.66809e-37,-0.0888744,0.0290051,9.64646,0.273752,-0.288493,-7.09302,3.92261,-0.529785
25,-1.66902e-37,-0.0994245,0.0440687,9.65745,0.321267,-0.277095,-4.67261,3.91724,-0.533691
26,-1.66996e-37,-0.0935231,0.0591608,9.65742,0.401516,-0.388619,-5.03809,3.91602,-0.529053
27,-1.67089e-37,-0.076514,0.0286114,9.67574,0.42275,-0.460774,-0.628174,3.91309,-0.534912
28,-1.67183e-37,-0.0941886,0.0164229,9.67763,0.377106,-0.247562,-1.06445,3.92578,-0.530762
29,-1.67276e-37,-0.0736814,0.0279032,9.67393,0.339299,-0.33278,3.19043,3.92188,-0.529297
30,-1.67369e-37,-0.0878727,0.0302351,9.67029,0.386839,-0.290261,4.8252,3.91528,-0.531494
31,-1.67463e-37,-0.0838027,0.0417368,9.65196,0.431075,-0.300173,5.24976,3.91138,-0.526367
32,-1.67556e-37,-0.0779229,0.0295053,9.64647,0.401388,-0.465718,0.42627,3.90942,-0.534424
33,-1.6765e-37,-0.0845108,0.0283396,9.69593,0.342578,-0.314799,-4.09741,3.91846,-0.528564
34,-1.67743e-37,-0.0785951,0.0507134,9.65926,0.357306,-0.198536,3.71362,3.8916,-0.531006
35,-1.67836e-37,-0.0966564,0.0366011,9.65566,0.416244,-0.426323,1.67358,3.91821,-0.531982
36,-1.6793e-37,-0.0942244,0.0317014,9.6575,0.452463,-0.288647,-1.79053,3.91943,-0.533203
37,-1.68023e-37,-0.0754553,0.0341977,9.6886,0.334279,-0.357421,-3.77417,3.91211,-0.533691
38,-1.68117e-37,-0.0658279,0.0382608,9.66476,0.30495,-0.245897,-6.66821,3.9187,-0.527344
39,-1.6821e-37,-0.0837666,0.031458,9.68679,0.436044,-0.237879,0.0541992,3.91309,-0.535645
40,-1.68304e-37,-0.0614501,0.0503059,9.67206,0.442524,-0.314953,2.31348,3.9104,-0.532471
41,-1.68397e-37,-0.0812205,0.0344624,9.65383,0.316297,-0.385187,-3.31738,3.92358,-0.529785
42,-1.6849e-37,-0.078903,0.0275384,9.63553,0.445854,-0.337801,-2.21509,3.92334,-0.531494
43,-1.68584e-37,-0.0820073,0.0264369,9.67582,0.417883,-0.347713,6.45483,3.9126,-0.528564
44,-1.68677e-37,-0.0759846,0.0380245,9.68312,0.56391,-0.365746,-0.753174,3.92822,-0.534424
45,-1.68771e-37,-0.0719574,0.00578646,9.65024,0.396624,-0.378732,-2.31714,3.9209,-0.526367
46,-1.68864e-37,-0.0767142,0.0430887,9.69776,0.352388,-0.386826,-0.381104,3.92456,-0.531006
47,-1.68957e-37,-0.0927295,0.0289332,9.67587,0.360712,-0.363773,-0.553711,3.93604,-0.532227
48,-1.69051e-37,-0.0830302,0.0495406,9.66848,0.399825,-0.334624,-0.988525,3.90796,-0.524658
49,-1.69144e-37,-0.0954118,0.0373092,9.66672,0.445675,-0.396918,-4.19385,3.91211,-0.534424
50,-1.69238e-37,-0.0855695,0.0325884,9.72531,0.40313,-0.396841,-1.26294,3.91699,-0.529297
51,-1.69331e-37,-0.0759278,0.0549699,9.67394,0.376977,-0.332857,5.61035,3.9165,-0.533936
52,-1.69425e-37,-0.101263,0.0170524,9.64849,0.311277,-0.447429,-7.98511,3.92285,-0.531982
53,-1.69518e-37,-0.0768144,0.0119739,9.66126,0.299904,-0.334419,-7.34521,3.91504,-0.531006
54,-1.69611e-37,-0.0689391,0.039827,9.65934,0.325954,-0.467204,-4.93555,3.91748,-0.531006
55,-1.69705e-37,-0.0663712,0.0367298,9.69413,0.373776,-0.301684,-1.37085,3.91943,-0.527588
56,-1.69798e-37,-0.0824794,0.0317658,9.67589,0.385148,-0.37384,2.03931,3.91943,-0.536133
57,-1.69892e-37,-0.0802048,0.0212654,9.6576,0.360508,-0.432753,-0.32666,3.92334,-0.528564
58,-1.69985e-37,-0.0905194,0.0310006,9.67227,0.342321,-0.49018,-4.72559,3.91748,-0.532715
59,-1.70078e-37,-0.084425,0.0258861,9.64481,0.380307,-0.308293,-0.526367,3.91553,-0.534912
60,-1.70172e-37,-0.0676015,0.0171668,9.62831,0.435967,-0.391872,-6.9375,3.92383,-0.530273
61,-1.70265e-37,-0.0943391,0.0290193,9.67597,0.353848,-0.364106,3.11719,3.90601,-0.533203
62,-1.70359e-37,-0.0736886,0.0385538,9.66123,0.439271,-0.242977,6.37427,3.90259,-0.528076
63,-1.70452e-37,-0.0751549,0.0373951,9.67406,0.46363,-0.336545,2.14258,3.88916,-0.533936
64,-1.70546e-37,-0.0655487,0.0306928,9.67222,0.455844,-0.275532,1.09204,3.92188,-0.530762
65,-1.70639e-37,-0.100061,0.0349774,9.63387,0.278516,-0.478448,0.927002,3.92749,-0.529785
66,-1.70732e-37,-0.0899543,0.0520516,9.69971,0.152392,-0.343948,6.39673,3.91675,-0.532227
67,-1.70826e-37,-0.0291764,0.0464434,9.66474,0.467447,-0.273791,-0.651611,3.93066,-0.528564
68,-1.70919e-37,-0.0856267,0.0381103,9.65397,0.427847,-0.314876,3.14136,3.91919,-0.531006
69,-1.71013e-37,-0.0740105,0.0589394,9.68499,0.49844,-0.247843,-5.61523,3.91577,-0.527344
70,-1.71106e-37,-0.083066,0.0521156,9.62462,0.291656,-0.262443,-7.15552,3.89893,-0.530518
71,-1.71199e-37,-0.108186,0.0290759,9.69073,0.311405,-0.393255,3.44849,3.92456,-0.532471
72,-1.71293e-37,-0.0876152,0.0128894,9.67058,0.401695,-0.293513,1.14575,3.92065,-0.528564
73,-1.71386e-37,-0.0725155,0.0262152,9.66866,0.286585,-0.460544,6.97217,3.91797,-0.533691
74,-1.7148e-37,-0.0826797,0.057845,9.68139,0.386941,-0.376939,6.85229,3.9292,-0.526367
75,-1.71573e-37,-0.0712352,0.0400345,9.68143,0.334176,-0.354245,-2.51001,3.9082,-0.531738
76,-1.71666e-37,-0.0597692,0.038611,9.6759,0.273317,-0.421405,5.43164,3.90112,-0.531006
77,-1.7176e-37,-0.0721151,0.0133975,9.67056,0.232667,-0.327785,-3.4563,3.90967,-0.528564
78,-1.71853e-37,-0.0590181,0.00984946,9.63025,0.323008,-0.263929,-3.30713,3.91577,-0.531494
79,-1.71947e-37,-0.0712566,0.0288045,9.66318,0.0404321,-0.496276,1.47827,3.90747,-0.527344
80,-1.7204e-37,-0.0798114,0.0251494,9.64309,0.181541,-0.422814,-0.187256,3.90552,-0.533203
81,-1.72134e-37,-0.0737172,0.0272166,9.64125,0.167069,-0.448659,4.60083,3.92603,-0.526367
82,-1.72227e-37,-0.0784738,0.0421803,9.65402,0.239199,-0.319614,-1.67065,3.9082,-0.529297
83,-1.7232e-37,-0.076142,0.0552986,9.6503,0.399646,-0.31526,-3.9939,3.88818,-0.531982
84,-1.72414e-37,-0.0940172,0.0249565,9.68164,0.361814,-0.390515,1.9292,3.89209,-0.528564
85,-1.72507e-37,-0.0679305,0.0270735,9.65772,0.226161,-0.288391,-4.08569,3.90967,-0.534424
86,-1.72601e-37,-0.0692967,0.0311082,9.66687,-0.041034,-0.312366,-0.259766,3.91235,-0.527344
87,-1.72694e-37,-0.0616934,0.0272167,9.63389,0.292707,-0.54607,3.4917,3.90039,-0.529785
88,-1.72787e-37,-0.0881161,0.00798271,9.71469,0.47841,-0.287571,3.08789,3.88867,-0.531494
89,-1.72881e-37,-0.0914487,0.0414077,9.66695,0.254516,-0.0753571,4.72754,3.90991,-0.526367
90,-1.72974e-37,-0.0970712,0.0379172,9.61937,0.260177,-0.519534,1.99292,3.91479,-0.531494
91,-1.73068e-37,-0.0959411,0.0404922,9.70177,0.161511,-0.611181,-6.8147,3.91064,-0.525635
92,-1.73161e-37,-0.0732237,0.0386826,9.67788,0.169195,-0.318974,-1.75732,3.93384,-0.530518
93,-1.73255e-37,-0.0784881,0.0387326,9.6303,0.368678,-0.5244,5.37964,3.93213,-0.528076
94,-1.73348e-37,-0.0793322,0.0431603,9.67974,0.206489,-0.4045,-5.88672,3.92285,-0.533203
95,-1.73441e-37,-0.0696973,0.0415079,9.66323,0.285279,-0.281936,-1.25732,3.91309,-0.531494
96,-1.73535e-37,-0.0712924,0.0290048,9.64498,0.312545,-0.576986,3.82422,3.91846,-0.529785
97,-1.73628e-37,-0.0629239,0.0150498,9.70363,0.434302,-0.334778,-1.36035,3.91162,-0.536133
98,-1.73722e-37,-0.0535104,0.00447053,9.67066,0.383714,-0.290286,-3.41528,3.91821,-0.523438
99,-1.73815e-37,-0.073238,0.0288188,9.65052,0.227698,-0.375223,4.67041,3.91309,-0.531494
100,-1.73908e-37,-0.0888738,0.0349986,9.70551,0.26033,-0.282192,-1.21191,3.88696,-0.530762
101,-1.74002e-37,-0.0723081,0.0459141,9.63579,0.365118,-0.477244,-2.09546,3.91211,-0.528076
102,-1.74095e-37,-0.0787313,0.0448626,9.67978,0.386788,-0.328118,-0.311035,3.91162,-0.532715
103,-1.74189e-37,-0.0673011,0.0471587,9.67605,0.508635,-0.159474,-7.08521,3.91675,-0.528076
104,-1.74282e-37,-0.0820789,0.0148135,9.63969,0.296139,-0.51313,-5.50439,3.91138,-0.532227
105,-1.74376e-37,-0.0920571,0.0228676,9.68732,0.35372,-0.37407,1.54712,3.90356,-0.526367
106,-1.74469e-37,-0.0697831,0.0394193,9.63034,0.302978,-0.360802,-0.304932,3.90674,-0.532227
107,-1.74562e-37,-0.0855553,0.0437686,9.66155,0.202365,-0.563897,4.4895,3.89966,-0.530273
108,-1.74656e-37,-0.0682739,0.0385109,9.66882,0.329489,-0.197076,5.80884,3.89355,-0.526855
109,-1.74749e-37,-0.0645115,0.0150997,9.65978,0.351594,-0.507034,5.65869,3.88843,-0.533691
110,-1.74843e-37,-0.0819644,0.0231251,9.67815,0.290043,-0.290286,1.21704,3.90674,-0.528076
111,-1.74936e-37,-0.0924576,0.0291335,9.68735,0.423288,-0.290209,-3.79272,3.92578,-0.532227
112,-1.75029e-37,-0.0851544,0.0201778,9.62143,0.244065,-0.393255,-5.6123,3.91382,-0.530762
113,-1.75123e-37,-0.0770576,0.00431316,9.67643,0.214865,-0.414105,-7.15625,3.93066,-0.528076
114,-1.75216e-37,-0.0818571,0.0302565,9.67082,0.281718,-0.383573,-4.66626,3.91235,-0.531006
115,-1.7531e-37,-0.0665713,0.0506918,9.66878,0.25718,-0.425965,5.60669,3.91943,-0.529297
116,-1.75403e-37,-0.0697333,0.0273099,9.67261,0.232564,-0.40304,0.943604,3.91479,-0.532227
117,-1.75497e-37,-0.0802406,0.0276171,9.65803,0.316016,-0.470431,6.60645,3.91675,-0.529053
118,-1.7559e-37,-0.0795182,0.0190194,9.67641,0.291477,-0.378783,6.0415,3.90771,-0.531006
119,-1.75683e-37,-0.0698618,0.0247989,9.66533,0.273675,-0.355602,-6.50586,3.91504,-0.531494
120,-1.75777e-37,-0.072995,0.0252426,9.67085,0.380102,-0.316822,-4.0647,3.9021,-0.528564
121,-1.7587e-37,-0.0508782,0.0162656,9.63231,0.278644,-0.334317,3.14795,3.91431,-0.533203
122,-1.75964e-37,-0.0519225,0.0206002,9.67624,0.238866,-0.385289,-4.5874,3.90063,-0.529053
123,-1.76057e-37,-0.0661781,0.0409214,9.63594,0.327465,-0.405115,-4.45142,3.90845,-0.536133
124,-1.7615e-37,-0.0710637,0.021416,9.65991,0.257,-0.427758,2.36401,3.91211,-0.531494
125,-1.76244e-37,-0.0649335,0.0163228,9.67089,0.334432,-0.36549,-0.321777,3.91943,-0.529297
126,-1.76337e-37,-0.0771863,0.0369444,9.65987,0.260945,-0.284907,-5.09766,3.92114,-0.531494
127,-1.76431e-37,-0.0715785,0.0115447,9.64169,0.395036,-0.318359,3.57129,3.91138,-0.528564
128,-1.76524e-37,-0.0818357,0.0269877,9.66913,0.394728,-0.346484,-4.37598,3.89966,-0.531494
129,-1.76618e-37,-0.0612355,0.0273811,9.66351,0.452591,-0.259498,-7.49829,3.91187,-0.528076
130,-1.76711e-37,-0.0846682,0.0172598,9.67657,0.368499,-0.367615,5.74072,3.90552,-0.531006
131,-1.76804e-37,-0.0752264,-0.000708131,9.65831,0.35103,-0.334343,7.85767,3.92261,-0.531006
132,-1.76898e-37,-0.0781448,0.0437682,9.65805,0.423211,-0.323047,-2.37231,3.9231,-0.530762
133,-1.76991e-37,-0.0633315,0.0367087,9.62137,0.257666,-0.291413,-4.67822,3.92114,-0.532227
134,-1.77085e-37,-0.0772152,0.0356787,9.6746,0.278542,-0.368768,-6.66187,3.91382,-0.527344
135,-1.77178e-37,-0.0566434,0.0358572,9.66164,0.450337,-0.479114,-0.262451,3.91431,-0.534424
136,-1.77271e-37,-0.0703697,0.0277459,9.70574,0.329284,-0.42617,-4.93555,3.91748,-0.531494
137,-1.77365e-37,-0.0463361,0.011323,9.66908,0.464322,-0.233192,7.18335,3.91699,-0.529297
138,-1.77458e-37,-0.0645403,0.0191626,9.6307,0.426259,-0.367436,5.448,3.92017,-0.534912
139,-1.77552e-37,-0.0728231,0.0292623,9.67282,0.39898,-0.231117,2.03149,3.92529,-0.529053
140,-1.77645e-37,-0.0708134,0.0260294,9.65452,0.334304,-0.310086,6.09424,3.90747,-0.531006
141,-1.77739e-37,-0.0792607,0.02864,9.68936,0.352106,-0.339722,4.17017,3.90308,-0.526855
142,-1.77832e-37,-0.0604847,0.0162658,9.70031,0.249803,-0.224073,-2.63501,3.92334,-0.528564
143,-1.77925e-37,-0.067859,0.027238,9.63987,0.482483,-0.285445,4.70386,3.92749,-0.528076
144,-1.78019e-37,-0.0929727,0.0300348,9.6547,0.357485,-0.339363,-7.29736,3.9187,-0.527832
145,-1.78112e-37,-0.0853832,0.0121024,9.64378,0.38374,-0.269129,0.317383,3.91284,-0.532715
146,-1.78206e-37,-0.0866069,0.00559371,9.68047,0.365784,-0.234678,-0.888184,3.91138,-0.523438
147,-1.78299e-37,-0.0734597,0.0205787,9.66746,0.434507,-0.364106,-4.6792,3.92212,-0.533203
148,-1.78392e-37,-0.0909985,0.0397555,9.68396,0.441218,-0.323175,1.56396,3.92163,-0.529053
149,-1.78486e-37,-0.0724082,0.043711,9.65632,0.431305,-0.372175,2.60815,3.92554,-0.526855
150,-1.78579e-37,-0.0721364,0.0240765,9.64365,0.450875,-0.29231,1.62866,3.9126,-0.533203
151,-1.78673e-37,-0.0770714,0.0158003,9.67123,0.413708,-0.255707,-5.47095,3.92578,-0.526367
152,-1.78766e-37,-0.0473018,0.0235615,9.67827,0.347137,-0.398583,4.41187,3.9104,-0.531494
153,-1.7886e-37,-0.0503701,0.0204784,9.68566,0.494547,-0.413952,7.35205,3.90845,-0.527832
154,-1.78953e-37,-0.0683669,-0.000765354,9.67316,0.382177,-0.247843,4.82886,3.91235,-0.528564
155,-1.79046e-37,-0.0551913,0.0142199,9.66012,0.424005,-0.444766,0.791992,3.91064,-0.531494
156,-1.7914e-37,-0.0562929,0.0203928,9.66742,0.376875,-0.24331,2.71606,3.89233,-0.528564
157,-1.79233e-37,-0.0649979,0.0392691,9.66368,0.346702,-0.155658,-7.03638,3.91943,-0.533691
158,-1.79327e-37,-0.0923149,0.0398988,9.65476,0.443779,-0.381063,7.94482,3.90503,-0.527344
159,-1.7942e-37,-0.0843106,0.040621,9.673,0.430101,-0.260702,1.61157,3.92529,-0.532715
160,-1.79513e-37,-0.0859557,0.0501343,9.64181,0.436659,-0.228069,1.19751,3.92139,-0.531982
161,-1.79607e-37,-0.0948968,0.0325526,9.64572,0.504997,-0.303964,0.890869,3.91504,-0.526855
162,-1.797e-37,-0.0486398,0.0111659,9.67298,0.424927,-0.293616,6.28589,3.92114,-0.531006
163,-1.79794e-37,-0.0593757,0.0207576,9.6437,0.416603,-0.341028,-4.10376,3.92334,-0.526855
164,-1.79887e-37,-0.0750973,0.0126746,9.68603,0.379283,-0.231117,3.08569,3.92139,-0.531006
165,-1.79981e-37,-0.0785885,0.0312652,9.65111,0.478538,-0.377579,2.67236,3.9165,-0.525146
166,-1.80074e-37,-0.07964,0.0303854,9.68227,0.419984,-0.324609,-3.94824,3.92456,-0.530273
167,-1.80167e-37,-0.07386,0.0398483,9.65285,0.456228,-0.267413,-5.30957,3.9231,-0.532715
168,-1.80261e-37,-0.0974003,0.0532744,9.62731,0.331179,-0.288621,-0.521484,3.91162,-0.528564
169,-1.80354e-37,-0.0930659,0.0285543,9.68244,0.439502,-0.35591,-7.45996,3.92236,-0.533203
170,-1.80448e-37,-0.0669148,0.0253497,9.68774,0.412453,-0.146027,1.46021,3.92114,-0.526123
171,-1.80541e-37,-0.0615216,0.00924147,9.6677,0.529536,-0.322099,6.60815,3.91577,-0.531006
172,-1.80634e-37,-0.0772149,0.0195487,9.69889,0.543342,-0.295383,1.7605,3.9314,-0.529053
173,-1.80728e-37,-0.0676877,0.0419731,9.67115,0.428693,-0.332268,-1.19727,3.93848,-0.529053
174,-1.80821e-37,-0.0819787,0.0353422,9.66586,0.508404,-0.277761,5.55884,3.91577,-0.531494
175,-1.80915e-37,-0.0981513,0.0360932,9.65501,0.382689,-0.266926,-5.63208,3.92847,-0.527344
176,-1.81008e-37,-0.0680021,0.0495764,9.69674,0.354898,-0.252018,-4.427,3.92969,-0.533691
177,-1.81102e-37,-0.0553344,0.0313151,9.65836,0.418396,-0.272331,-5.56738,3.91943,-0.526855
178,-1.81195e-37,-0.0640108,0.0393263,9.6602,0.463016,-0.234652,-3.84253,3.92407,-0.526367
179,-1.81288e-37,-0.0584173,0.0124817,9.66224,0.414221,-0.351555,-7.94751,3.90259,-0.528076
180,-1.81382e-37,-0.0707416,0.0222525,9.65312,0.424722,-0.288929,-4.87915,3.91431,-0.528076
181,-1.81475e-37,-0.0903758,0.0249559,9.66244,0.327055,-0.27146,5.90527,3.93164,-0.530762
182,-1.81569e-37,-0.0898326,0.0310076,9.67338,0.326594,-0.312724,4.1311,3.92432,-0.525146
183,-1.81662e-37,-0.0876581,0.0386325,9.65681,0.367603,-0.304733,-5.83545,3.92358,-0.534424
184,-1.81755e-37,-0.0819716,0.0352206,9.63482,0.490423,-0.383701,1.08008,3.93066,-0.527344
185,-1.81849e-37,-0.0718288,0.0381032,9.6805,0.523773,-0.210344,1.08789,3.9248,-0.526855
186,-1.81942e-37,-0.0660851,0.0351205,9.67865,0.400363,-0.27064,-2.57715,3.91919,-0.528564
187,-1.82036e-37,-0.0694395,0.0410858,9.66582,0.47905,-0.308472,-1.53418,3.92407,-0.525635
188,-1.82129e-37,-0.0599909,0.0397197,9.65293,0.465475,-0.312238,-1.72729,3.91138,-0.531982
189,-1.82223e-37,-0.0797757,0.015071,9.66803,0.568367,-0.24938,6.8418,3.93701,-0.522705
190,-1.82316e-37,-0.0517437,0.0140482,9.69342,0.369921,-0.193054,7.95459,3.92847,-0.526367
191,-1.82409e-37,-0.0662425,0.0200137,9.6752,0.467844,-0.260932,-0.327637,3.92383,-0.528564
192,-1.82503e-37,-0.0805911,0.0370589,9.65137,0.36914,-0.296613,-2.0542,3.92065,-0.528564
193,-1.82596e-37,-0.0816569,0.0415938,9.6843,0.500105,-0.268079,-4.0896,3.9126,-0.534424
194,-1.8269e-37,-0.0779155,0.0365151,9.65869,0.40897,-0.178915,6.07983,3.91821,-0.525146
195,-1.82783e-37,-0.0667432,0.0405352,9.64757,0.391193,-0.224227,-3.79883,3.93066,-0.534424
196,-1.82876e-37,-0.0627447,0.0138908,9.6771,0.323469,-0.307576,-7.15234,3.92773,-0.52832
197,-1.8297e-37,-0.0677019,0.0326386,9.66965,0.487708,-0.242823,-0.174805,3.92749,-0.529297
198,-1.83063e-37,-0.0804909,0.029484,9.64052,0.332486,-0.409572,-3.83765,3.92017,-0.534912
199,-1.83157e-37,-0.0593042,0.0393192,9.67867,0.377515,-0.260625,-1.37231,3.92041,-0.525146
200,-1.8325e-37,-0.0754839,0.0381247,9.67336,0.347803,-0.29003,0.570312,3.91943,-0.531982
201,-1.83344e-37,-0.0734311,0.0239048,9.66984,0.498184,-0.358113,-3.72778,3.91675,-0.524414
202,-1.83437e-37,-0.0857984,0.0301278,9.65892,0.373981,-0.308114,0.936035,3.92065,-0.531494
203,-1.8353e-37,-0.0689033,0.0250278,9.66248,0.397341,-0.262213,-5.20703,3.92456,-0.530273
204,-1.83624e-37,-0.0813493,0.0130468,9.67557,0.323661,-0.233986,3.50366,3.92285,-0.525635
205,-1.83717e-37,-0.0697545,0.028175,9.68813,0.51719,-0.221896,5.86401,3.9231,-0.529785
206,-1.83811e-37,-0.0737389,0.0192127,9.63516,0.470649,-0.307089,6.65698,3.91846,-0.526123
207,-1.83904e-37,-0.0783308,0.031308,9.66988,0.372444,-0.242849,-2.30786,3.91406,-0.534424
208,-1.83997e-37,-0.0908626,0.0228533,9.67378,0.451284,-0.168081,4.88574,3.90918,-0.528564
209,-1.84091e-37,-0.0667289,0.0287759,9.67715,0.519598,-0.333677,-5.61621,3.91675,-0.528564
210,-1.84184e-37,-0.0663426,0.0312365,9.66795,0.456202,-0.215364,1.15356,3.91479,-0.528076
211,-1.84278e-37,-0.071521,0.0319445,9.66801,0.490577,-0.261265,-3.78369,3.91895,-0.526123
212,-1.84371e-37,-0.0766427,0.0236401,9.67733,0.518163,-0.281321,4.56421,3.91455,-0.531006
213,-1.84465e-37,-0.0599122,0.024055,9.66435,0.536477,-0.241978,-2.73022,3.91602,-0.526855
214,-1.84558e-37,-0.083452,0.021344,9.65914,0.598156,-0.262495,-3.17578,3.90381,-0.528564
215,-1.84651e-37,-0.0718649,0.0205288,9.68468,0.497211,-0.32151,5.69897,3.92871,-0.531494
216,-1.84745e-37,-0.0771506,0.0336899,9.64798,0.508558,-0.212521,-5.45166,3.91113,-0.526123
217,-1.84838e-37,-0.0836668,0.0567578,9.67342,0.478256,-0.291464,-3.16943,3.8999,-0.534912
218,-1.84932e-37,-0.0889241,0.0518724,9.66256,0.435967,-0.241978,2.85815,3.90332,-0.522217
219,-1.85025e-37,-0.0981656,0.0376311,9.6372,0.422263,-0.36636,-1.56396,3.90674,-0.533691
220,-1.85118e-37,-0.0955044,0.036751,9.66833,0.409943,-0.305142,3.66797,3.91772,-0.528564
221,-1.85212e-37,-0.040621,0.0144845,9.64604,0.429256,-0.291003,2.73706,3.90747,-0.529785
222,-1.85305e-37,-0.0709061,0.00687388,9.69592,0.38999,-0.179889,-3.72461,3.88306,-0.531982
223,-1.85399e-37,-0.0730949,0.0194271,9.62621,0.518035,-0.0449786,5.76367,3.91968,-0.527344
224,-1.85492e-37,-0.0798616,0.0226032,9.67021,0.306974,-0.519508,3.82983,3.91406,-0.532715
225,-1.85586e-37,-0.10589,0.0385967,9.71976,0.501002,-0.0977695,4.6731,3.91113,-0.524414
226,-1.85679e-37,-0.0738534,0.0413651,9.61866,0.380948,-0.205042,4.45679,3.91602,-0.531982
227,-1.85772e-37,-0.092837,0.0430961,9.69761,0.433969,-0.431344,4.92285,3.92065,-0.528564
228,-1.85866e-37,-0.0870859,0.0450844,9.66457,0.383996,-0.192235,0.740479,3.90991,-0.526855
229,-1.85959e-37,-0.105118,0.0530598,9.65735,0.407612,-0.419945,1.09961,3.91602,-0.530273
230,-1.86053e-37,-0.0751764,0.0262509,9.69034,0.469368,-0.259395,5.49951,3.9209,-0.526855
231,-1.86146e-37,-0.0608922,0.0223026,9.62798,0.345549,-0.337852,7.97803,3.91138,-0.531494
232,-1.86239e-37,-0.0654058,0.0216232,9.67566,0.417602,-0.408419,0.990967,3.91846,-0.530762
233,-1.86333e-37,-0.066285,0.0316941,9.69937,0.456202,-0.21539,-7.34351,3.91406,-0.530273
234,-1.86426e-37,-0.0753838,0.0321592,9.67751,0.346087,-0.340516,3.29297,3.92334,-0.529785
235,-1.8652e-37,-0.0859769,0.0200348,9.6833,0.297586,-0.398327,7.45557,3.90942,-0.526855
236,-1.86613e-37,-0.0781877,0.0365296,9.65737,0.489962,-0.110269,-2.73804,3.92188,-0.533691
237,-1.86706e-37,-0.0650621,0.0462644,9.66076,0.456638,-0.443177,-2.52051,3.91602,-0.526367
238,-1.868e-37,-0.0894746,0.0605271,9.69934,0.383304,-0.347841,-2.98877,3.91333,-0.530273
239,-1.86893e-37,-0.0799899,0.0517648,9.69569,0.334484,-0.311341,-6.55957,3.91626,-0.533203
240,-1.86987e-37,-0.0761703,0.0319872,9.69042,0.374826,-0.377349,-1.2561,3.91211,-0.526855
241,-1.8708e-37,-0.0979872,0.0161013,9.67625,0.395522,-0.242823,0.574219,3.9165,-0.532715
242,-1.87174e-37,-0.0705411,0.0231536,9.63739,0.399569,-0.411518,2.82617,3.91968,-0.525635
243,-1.87267e-37,-0.0659349,0.0349273,9.65735,0.43151,-0.296869,6.28589,3.92114,-0.530273
244,-1.8736e-37,-0.0781162,0.0341334,9.67766,0.289044,-0.248612,-4.09717,3.91846,-0.527832
245,-1.87454e-37,-0.081571,0.0253783,9.67416,0.366783,-0.375556,2.88501,3.91455,-0.530273
246,-1.87547e-37,-0.093738,0.0370374,9.67417,0.436274,-0.261265,3.30591,3.91357,-0.531006
247,-1.87641e-37,-0.0465722,0.00726014,9.63557,0.332281,-0.269334,5.11426,3.93433,-0.526855
248,-1.87734e-37,-0.0677446,0.0138837,9.66504,0.355654,-0.339235,-7.61133,3.91772,-0.531494
249,-1.87827e-37,-0.0688104,0.0219664,9.68144,0.326005,-0.360367,2.51416,3.91724,-0.525146
250,-1.87921e-37,-0.0795967,0.0420871,9.63552,0.355052,-0.4441,3.87646,3.9187,-0.531494
251,-1.88014e-37,-0.0863849,0.0245199,9.64685,0.398058,-0.372303,-2.9939,3.91724,-0.527344
252,-1.88136e-37,-0.100455,0.0487898,9.62657,0.369498,-0.382702,2.12476,3.90283,-0.528564
253,-1.88323e-37,-0.0812853,0.0404282,9.66309,0.375825,-0.325762,-5.36694,3.92627,-0.533691
254,-1.8851e-37,-0.0790461,0.0498911,9.6483,0.45893,-0.359445,-2.94458,3.91943,-0.526855
255,-1.88697e-37,-0.0894103,0.0291619,9.68169,0.298291,-0.31608,-5.03711,3.91504,-0.532715
256,-1.88884e-37,-0.0854049,0.0258003,9.6762,0.352439,-0.342411,6.70801,3.91919,-0.527344
257,-1.89071e-37,-0.0742326,0.0168024,9.66155,0.281334,-0.274047,-4.16724,3.9314,-0.528564
258,-1.89257e-37,-0.0629307,0.00797542,9.66521,0.388581,-0.303477,-6.927,3.91602,-0.530762
259,-1.89444e-37,-0.0628234,0.0117664,9.63587,0.406639,-0.38009,-1.32715,3.92603,-0.528564
260,-1.89631e-37,-0.0575446,0.0441903,9.69032,0.420086,-0.231681,2.04712,3.91357,-0.530762
261,-1.89818e-37,-0.0685385,0.0517508,9.65556,0.312378,-0.435672,7.96973,3.91724,-0.526123
262,-1.90005e-37,-0.0880587,0.0398485,9.67064,0.420573,-0.390873,-0.729736,3.91064,-0.529297
263,-1.90192e-37,-0.0677448,0.0415367,9.63741,0.440706,-0.364439,2.2002,3.91675,-0.529785
264,-1.90378e-37,-0.0758988,0.0356212,9.6834,0.491806,-0.250558,-6.12842,3.90747,-0.526855
265,-1.90565e-37,-0.0702907,0.0341688,9.66689,0.321138,-0.345638,-3.4126,3.91626,-0.533203
266,-1.90752e-37,-0.066171,0.0129037,9.6873,0.279413,-0.380346,-3.81909,3.90649,-0.525146
267,-1.90939e-37,-0.0675798,0.0258215,9.66518,0.296728,-0.312724,3.25049,3.91577,-0.531494
268,-1.91126e-37,-0.0576519,0.0246916,9.69254,0.349417,-0.316054,0.673584,3.9209,-0.530762
269,-1.91313e-37,-0.0611353,0.0177176,9.67989,0.38374,-0.296869,3.72192,3.9165,-0.528076
270,-1.91499e-37,-0.0753624,0.0383035,9.65964,0.374506,-0.380986,7.45947,3.90649,-0.531006
271,-1.91686e-37,-0.0837884,0.0463933,9.66696,0.329309,-0.371739,-6.35376,3.91919,-0.528076
272,-1.91873e-37,-0.0904622,0.0470944,9.67622,0.402438,-0.291618,-3.62427,3.88647,-0.533203
273,-1.9206e-37,-0.0813564,0.0199636,9.6692,0.411019,-0.382344,4.14282,3.91553,-0.524658
274,-1.92247e-37,-0.0715216,0.0259937,9.67449,0.394651,-0.31713,2.68408,3.90771,-0.527344
275,-1.92434e-37,-0.0860773,0.0245343,9.64907,0.326082,-0.301659,6.92847,3.91138,-0.529785
276,-1.9262e-37,-0.087422,0.0142914,9.66574,0.423442,-0.257705,-0.528564,3.91748,-0.527344
277,-1.92807e-37,-0.0793966,0.0332035,9.6727,0.333715,-0.198075,-6.98193,3.91821,-0.531982
278,-1.92994e-37,-0.0886309,0.0225672,9.6565,0.340964,-0.192414,-1.85767,3.93042,-0.527832
279,-1.93181e-37,-0.0935806,0.0324524,9.66742,0.288967,-0.305629,4.55176,3.92334,-0.534912
280,-1.93368e-37,-0.0797613,0.0441402,9.69821,0.26033,-0.306321,-6.02539,3.90894,-0.527344
281,-1.93555e-37,-0.0670436,0.0130969,9.6912,0.34934,-0.290158,4.40527,3.91528,-0.529785
282,-1.93741e-37,-0.0793183,0.0283399,9.68566,0.367641,-0.302991,4.81689,3.92163,-0.533691
283,-1.93928e-37,-0.0670221,0.0186045,9.62522,0.474388,-0.246563,4.40161,3.91821,-0.523193
284,-1.94115e-37,-0.065799,0.0292623,9.68,0.368858,-0.353886,2.14209,3.9209,-0.531982
285,-1.94302e-37,-0.0848828,0.0361076,9.71496,0.27365,-0.335418,-6.45581,3.91675,-0.525146
286,-1.94489e-37,-0.0886523,0.0413077,9.66733,0.408585,-0.207347,6.35449,3.90918,-0.531006
287,-1.94676e-37,-0.0900829,0.0636531,9.65237,0.411813,-0.257833,6.87183,3.91455,-0.529785
288,-1.94862e-37,-0.0880944,0.0423448,9.66001,0.350287,-0.308805,2.12231,3.90479,-0.529541
289,-1.95049e-37,-0.0858127,0.0374451,9.6674,0.333126,-0.361314,3.18115,3.92871,-0.531982
290,-1.95236e-37,-0.0836736,0.0142268,9.67691,0.389324,-0.22789,-2.94385,3.91895,-0.528564
291,-1.95423e-37,-0.0596544,0.0305352,9.65252,0.385174,-0.326402,7.97144,3.91626,-0.530273
292,-1.9561e-37,-0.0687031,0.018204,9.64004,0.440731,-0.229427,-1.32764,3.89526,-0.528564
293,-1.95797e-37,-0.0773866,0.0101213,9.66045,0.429807,-0.288903,1.4646,3.91772,-0.526855
294,-1.95983e-37,-0.087887,0.0163729,9.66051,0.327491,-0.327965,-1.62183,3.91089,-0.528564
295,-1.9617e-37,-0.086986,0.0317518,9.67677,0.374775,-0.365976,-4.40234,3.91113,-0.528564
296,-1.96357e-37,-0.0994815,0.037638,9.65672,0.274521,-0.241773,-0.321777,3.91943,-0.533203
297,-1.96544e-37,-0.0952186,0.0490757,9.6638,0.462478,-0.409623,-0.0744629,3.93091,-0.527832
298,-1.96731e-37,-0.0981942,0.0661137,9.65444,0.378745,-0.353938,-5.98926,3.92139,-0.528076
299,-1.96918e-37,-0.0757558,0.0392834,9.68021,0.396854,-0.277479,2.8335,3.91382,-0.533691
300,-1.97104e-37,-0.072208,0.0320304,9.65282,0.368269,-0.39679,-2.36304,3.91626,-0.526855
301,-1.97291e-37,-0.0772432,0.023504,9.65488,0.411416,-0.295742,-7.86597,3.91211,-0.533203
302,-1.97478e-37,-0.0526378,0.0277745,9.67829,0.440629,-0.361263,-3.72656,3.91577,-0.527832
303,-1.97665e-37,-0.0686455,0.0321874,9.67114,0.259511,-0.316694,2.92383,3.92505,-0.532715
304,-1.97852e-37,-0.0806412,0.0313724,9.69881,0.325877,-0.376683,-0.319092,3.91748,-0.529053
305,-1.98038e-37,-0.0876226,0.0425383,9.67493,0.322573,-0.362032,3.61768,3.91602,-0.529053
306,-1.98225e-37,-0.0966639,0.0444768,9.64575,0.265299,-0.293283,6.40845,3.90796,-0.532471
307,-1.98412e-37,-0.090383,0.039798,9.67688,0.327849,-0.379526,-5.15454,3.92432,-0.527344
308,-1.98599e-37,-0.0813994,0.0195273,9.64964,0.317066,-0.300942,-7.98218,3.88916,-0.534912
309,-1.98786e-37,-0.0695614,0.0257002,9.67318,0.305078,-0.299558,5.76733,3.91675,-0.529053
310,-1.98973e-37,-0.0640823,0.03276,9.63637,0.359048,-0.446354,-3.54028,3.93335,-0.531494
311,-1.99159e-37,-0.0780447,0.0263439,9.6477,0.289402,-0.391462,-7.18555,3.91333,-0.529053
312,-1.99346e-37,-0.0751762,0.0344908,9.67318,0.364606,-0.471917,4.8186,3.92017,-0.526855
313,-1.99533e-37,-0.0742467,0.0514794,9.6729,0.270678,-0.494508,1.7832,3.91479,-0.529785
314,-1.9972e-37,-0.0832591,0.0423877,9.64574,0.232603,-0.375812,3.82153,3.92041,-0.527832
315,-1.99907e-37,-0.0695614,0.0195273,9.69355,0.354002,-0.370151,4.24048,3.9209,-0.533203
316,-2.00094e-37,-0.0635461,0.0433393,9.66926,0.282384,-0.277991,3.77173,3.91821,-0.530762
317,-2.0028e-37,-0.0633384,0.0489183,9.65086,0.491012,-0.350864,-4.23853,3.90649,-0.525635
318,-2.00467e-37,-0.0664571,0.0317372,9.67321,0.383688,-0.324635,-1.94629,3.91821,-0.531982
319,-2.00654e-37,-0.0759417,0.00995676,9.64443,0.25759,-0.326786,7.38794,3.9209,-0.526855
320,-2.00841e-37,-0.0828085,0.0194271,9.63524,0.304028,-0.450247,-1.52612,3.91821,-0.531494
321,-2.01028e-37,-0.0957694,0.0428527,9.68084,0.252492,-0.475067,-0.728516,3.90967,-0.526123
322,-2.01215e-37,-0.0953829,0.0464931,9.65883,0.296549,-0.360008,6.2373,3.91846,-0.529297
323,-2.01401e-37,-0.101885,0.0599766,9.66603,0.083131,-0.50168,-4.42944,3.93164,-0.532471
324,-2.01588e-37,-0.0796684,0.0268589,9.66994,0.159538,-0.436364,6.71631,3.91333,-0.528564
325,-2.01775e-37,-0.0751549,0.0398699,9.6715,0.206387,-0.427553,4.54663,3.92725,-0.530273
326,-2.01962e-37,-0.0788243,0.0251709,9.64802,0.211868,-0.461261,-7.39648,3.91431,-0.523926
327,-2.02149e-37,-0.0668433,0.0256716,9.66981,0.197832,-0.444151,4.49902,3.92358,-0.532715
328,-2.02336e-37,-0.0571584,0.0275027,9.66232,0.0116673,-0.422379,2.80884,3.93237,-0.530762
329,-2.02522e-37,-0.068789,0.0283827,9.69913,0.253414,-0.75206,1.49487,3.93457,-0.529053
330,-2.02709e-37,-0.0984949,0.0386328,9.71229,0.233102,-0.310265,6.8125,3.91968,-0.531006
331,-2.02896e-37,-0.0842892,0.0213446,9.55852,0.0529574,-0.490743,-0.42749,3.91992,-0.525635
332,-2.03083e-37,-0.0725513,0.0305355,9.66809,-0.165135,-0.884203,6.86694,3.91846,-0.532715
333,-2.0327e-37,-0.0847255,0.0264657,9.74897,0.0275993,-0.0587078,-6.62964,3.9292,-0.525146
334,-2.03457e-37,-0.067716,0.0119452,9.56396,0.0687998,-0.514257,-5.14087,3.91406,-0.527588
335,-2.03643e-37,-0.101234,0.0205859,9.70358,-0.135679,-0.853594,-7.55371,3.91406,-0.528076
336,-2.0383e-37,-0.067723,0.0265296,9.76888,-0.134219,0.230733,2.76709,3.89307,-0.526367
337,-2.04017e-37,-0.0622941,-0.0117593,9.48555,-0.168081,-0.750523,-2.82251,3.90674,-0.529785
338,-2.04204e-37,-0.0382964,0.0107295,9.85844,0.302722,-0.944346,2.99438,3.91113,-0.527344
339,-2.04391e-37,-0.0375596,0.0409643,9.68026,0.835933,0.318193,7.19751,3.90625,-0.531006
340,-2.04578e-37,-0.0437756,0.0489829,9.54468,0.643186,-0.57048,7.94482,3.90503,-0.530273
341,-2.04764e-37,-0.10205,0.0290907,9.76035,0.640625,-0.577806,7.70728,3.91748,-0.529053
342,-2.04951e-37,-0.085827,0.0212368,9.59357,0.360123,0.272984,1.9519,3.90625,-0.531006
343,-2.05138e-37,-0.0611068,0.00997129,9.57321,0.376337,-0.868553,2.66211,3.92432,-0.528076
344,-2.05325e-37,-0.091242,0.000314824,9.79007,0.460557,-0.120848,-7.5,3.91284,-0.531494
345,-2.05512e-37,-0.0625802,0.0372234,9.59477,0.383688,0.0734232,-1.94238,3.91528,-0.524414
346,-2.05699e-37,-0.074876,0.040435,9.62974,0.290581,-0.708976,-6.72485,3.92188,-0.529785
347,-2.05885e-37,-0.111241,0.00489254,9.73177,0.246217,-0.0844757,-0.105713,3.91455,-0.531982
348,-2.06072e-37,-0.0678376,0.018018,9.5696,0.197524,-0.208756,-1.3103,3.91333,-0.525635
349,-2.06259e-37,-0.0785741,0.0311867,9.66299,0.282896,-0.654725,6.28369,3.9231,-0.531982
350,-2.06446e-37,-0.0600699,0.0360717,9.72305,0.357306,0.0701958,-1.62451,3.91284,-0.527344
351,-2.06633e-37,-0.04909,0.0237331,9.63334,0.389349,-0.265594,-4.51929,3.92041,-0.531494
352,-2.0682e-37,-0.0802764,0.0353064,9.70512,0.349878,-0.582416,1.73584,3.91113,-0.527832
353,-2.07006e-37,-0.0769283,0.00398396,9.67087,0.287405,-0.0943885,-0.477539,3.91821,-0.527344
354,-2.07193e-37,-0.0747186,0.0244127,9.66496,0.317488,-0.427297,-2.99829,3.92065,-0.531006
355,-2.0738e-37,-0.0684241,0.0159723,9.68517,0.418485,-0.446738,-1.46802,3.91357,-0.528076
356,-2.07567e-37,-0.0771431,0.0344765,9.65571,0.418575,-0.212624,-0.203369,3.90918,-0.531006
357,-2.07754e-37,-0.0641326,0.0347488,9.64999,0.394677,-0.575706,4.40161,3.91821,-0.525635
358,-2.07941e-37,-0.0812062,0.0306857,9.67971,0.446136,-0.266823,-7.60254,3.91138,-0.529785
359,-2.08127e-37,-0.0778158,0.0126033,9.6617,0.40126,-0.3336,-1.78003,3.91162,-0.531494
360,-2.08314e-37,-0.0853474,0.0197701,9.61592,0.314453,-0.381498,3.4563,3.9187,-0.525146
361,-2.08501e-37,-0.0616074,0.0175316,9.68882,0.465705,-0.268693,1.42163,3.91064,-0.529785
362,-2.08688e-37,-0.0731524,-0.00954894,9.66392,0.345267,-0.153019,-2.71973,3.9082,-0.527344
363,-2.08875e-37,-0.08494,0.017174,9.68378,0.372623,-0.425119,5.09131,3.91211,-0.533203
364,-2.09062e-37,-0.106341,0.0198634,9.68049,0.433278,-0.170463,6.01685,3.92627,-0.528564
365,-2.09248e-37,-0.104668,0.0308001,9.64729,0.41317,-0.239134,6.31885,3.90479,-0.526855
366,-2.09435e-37,-0.0981084,0.037438,9.68187,0.42485,-0.5494,1.71313,3.89697,-0.529297
367,-2.09622e-37,-0.0718503,0.0410216,9.67036,0.460377,-0.319461,0.476318,3.91113,-0.524414
368,-2.09809e-37,-0.0706486,0.0189479,9.63232,0.320434,-0.300865,4.29004,3.9231,-0.530273
369,-2.09996e-37,-0.0620721,0.0291189,9.66863,0.359099,-0.446559,-4.3999,3.90918,-0.525635
370,-2.10183e-37,-0.0632526,0.0404636,9.65929,0.407074,-0.21895,3.70093,3.93213,-0.528076
371,-2.10369e-37,-0.0541828,0.0224957,9.65583,0.393704,-0.365361,1.98022,3.92456,-0.528076
372,-2.10556e-37,-0.0822505,0.0207432,9.69853,0.418216,-0.437235,1.42261,3.90967,-0.525635
373,-2.10743e-37,-0.0689963,0.0370875,9.67235,0.319807,-0.397277,-2.11475,3.92676,-0.529297
374,-2.1093e-37,-0.0782163,0.031637,9.64333,0.350211,-0.261854,-6.77759,3.92212,-0.525146
375,-2.11117e-37,-0.0826439,0.038375,9.67627,0.377029,-0.310316,6.87305,3.91357,-0.530273
376,-2.11304e-37,-0.108666,0.0241265,9.64592,0.244155,-0.257141,-7.1001,3.92798,-0.528076
377,-2.1149e-37,-0.0875723,0.0391117,9.66357,0.425273,-0.396201,6.61377,3.91138,-0.528564
378,-2.11677e-37,-0.0748044,0.0190766,9.65092,0.378335,-0.295921,-2.69531,3.92944,-0.531006
379,-2.11864e-37,-0.068653,0.0179751,9.66551,0.334432,-0.305014,-5.97974,3.91357,-0.525635
380,-2.12051e-37,-0.075441,0.0240693,9.66553,0.336481,-0.270538,-3.19971,3.91431,-0.531006
381,-2.12238e-37,-0.0805551,0.0282464,9.6619,0.372597,-0.212393,-6.12842,3.90747,-0.523926
382,-2.12425e-37,-0.0883948,0.0172741,9.62931,0.430076,-0.386647,7.0896,3.90869,-0.529785
383,-2.12611e-37,-0.0843392,0.00689534,9.63314,0.263327,-0.249688,5.81494,3.92041,-0.531006
384,-2.12798e-37,-0.0566723,0.0319019,9.69808,0.369101,-0.290504,-6.71509,3.91455,-0.526367
385,-2.12985e-37,-0.0694541,0.025085,9.68565,0.353451,-0.378937,-4.03882,3.91382,-0.531006
386,-2.13172e-37,-0.0646689,0.0369158,9.70549,0.429666,-0.343103,5.92041,3.91992,-0.524414
387,-2.13359e-37,-0.0708493,0.0112589,9.66951,0.393204,-0.352913,-5.35278,3.91602,-0.532227
388,-2.13546e-37,-0.0651696,0.000607992,9.66415,0.316733,-0.366155,-2.21826,3.92529,-0.528564
389,-2.13732e-37,-0.0862704,0.014413,9.66979,0.404077,-0.158629,-4.05615,3.927,-0.528076
390,-2.13919e-37,-0.0566648,0.0181182,9.671,0.2669,-0.267233,-3.37354,3.92627,-0.527588
391,-2.14106e-37,-0.0757126,0.0321875,9.69491,0.202493,-0.281705,-4.62622,3.92188,-0.526855
392,-2.14293e-37,-0.0670436,0.0295627,9.65084,0.259434,-0.187035,-3.11938,3.90161,-0.530273
393,-2.1448e-37,-0.08195,0.00994224,9.64422,0.337378,-0.514897,-4.56348,3.91382,-0.526367
394,-2.14667e-37,-0.081721,0.0244268,9.70073,0.33018,-0.236086,1.99438,3.91382,-0.529785
395,-2.14853e-37,-0.073195,0.0344481,9.63992,0.340861,-0.202865,-4.04712,3.92017,-0.530273
396,-2.1504e-37,-0.0562215,0.0330463,9.65246,0.39428,-0.429832,7.23413,3.91821,-0.527344
397,-2.15227e-37,-0.0864782,0.00938467,9.69203,0.330308,-0.132016,-2.42505,3.92334,-0.529297
398,-2.15414e-37,-0.0722223,0.0250922,9.64565,0.373097,-0.283268,-3.52612,3.9231,-0.525635
399,-2.15601e-37,-0.0883948,0.0186618,9.64795,0.401362,-0.443997,-3.13696,3.90625,-0.531982
400,-2.15788e-37,-0.0977221,0.0295126,9.69191,0.4634,-0.284036,0.667969,3.9248,-0.528564
401,-2.15974e-37,-0.0743184,0.0324384,9.64745,0.469061,-0.275302,7.08447,3.9126,-0.526855
402,-2.16161e-37,-0.0697543,0.0281963,9.6786,0.506048,-0.383496,-5.82642,3.91675,-0.531494
403,-2.16348e-37,-0.0727015,0.0345554,9.68222,0.423096,-0.313877,4.98145,3.91602,-0.528076
404,-2.16535e-37,-0.0719004,0.0102286,9.63144,0.312263,-0.328323,3.65674,3.92603,-0.530273
405,-2.16722e-37,-0.0718217,0.0086764,9.70844,0.367475,-0.410622,-7.12744,3.90918,-0.525146
406,-2.16909e-37,-0.0811275,0.0193627,9.66079,0.317501,-0.151201,0.899902,3.9082,-0.531006
407,-2.17095e-37,-0.0628306,0.0263725,9.64198,0.391949,-0.342782,-1.68579,3.91943,-0.528564
408,-2.17282e-37,-0.0796615,0.0426811,9.67679,0.472493,-0.221512,-1.32983,3.92798,-0.527344
409,-2.17469e-37,-0.0760204,0.0465006,9.65652,0.494841,-0.212675,-5.40991,3.91919,-0.531006
410,-2.17656e-37,-0.0779234,0.0271453,9.65881,0.392218,-0.27917,-6.61133,3.91553,-0.525635
411,-2.17843e-37,-0.0568007,0.0368729,9.67836,0.406306,-0.218285,-5.6731,3.91992,-0.531982
412,-2.1803e-37,-0.0799261,0.0255788,9.61679,0.510069,-0.36654,1.08911,3.92383,-0.528076
413,-2.18216e-37,-0.0606633,0.026394,9.63841,0.428898,-0.265927,-5.15063,3.92139,-0.529053
414,-2.18403e-37,-0.0526738,0.000293541,9.68096,0.296574,-0.324199,7.34424,3.91431,-0.529785
415,-2.1859e-37,-0.0716927,0.0412431,9.67315,0.332114,-0.338159,-7.38965,3.90894,-0.523438
416,-2.18777e-37,-0.0682238,0.0194343,9.66259,0.309715,-0.384316,7.49097,3.92236,-0.532715
417,-2.18964e-37,-0.0635384,0.0292764,9.67696,0.404039,-0.256117,-4.80396,3.93677,-0.524658
418,-2.19151e-37,-0.0724229,0.0334971,9.6679,0.431357,-0.318718,-2.47021,3.91772,-0.528076
419,-2.19337e-37,-0.088531,0.0182614,9.68141,0.431638,-0.337903,4.65625,3.92383,-0.529785
420,-2.19524e-37,-0.0604485,0.0363577,9.66947,0.411992,-0.43995,6.97363,3.91699,-0.525146
421,-2.19711e-37,-0.0837385,0.0319447,9.67008,0.485172,-0.314748,-6.66187,3.91382,-0.532227
422,-2.19898e-37,-0.0555345,0.0305926,9.68605,0.426336,-0.42599,-1.56787,3.90967,-0.527344
423,-2.20085e-37,-0.0735384,0.0312508,9.67177,0.508122,-0.302043,-5.24292,3.91211,-0.529785
424,-2.20272e-37,-0.0848113,0.0153214,9.65406,0.386865,-0.341258,5.76587,3.91772,-0.528564
425,-2.20458e-37,-0.0508494,0.0246986,9.66967,0.46632,-0.386775,-1.62451,3.91284,-0.526855
426,-2.20645e-37,-0.0773148,0.0461069,9.67159,0.374595,-0.37115,1.73413,3.91211,-0.531006
427,-2.20832e-37,-0.077358,0.0299132,9.66099,0.34204,-0.297637,-0.395996,3.90454,-0.526855
428,-2.21019e-37,-0.091492,0.0146991,9.6818,0.33789,-0.361571,-1.84741,3.92261,-0.533203
429,-2.21206e-37,-0.081571,0.0152642,9.69443,0.370587,-0.327965,-7.55811,3.91748,-0.522949
430,-2.21393e-37,-0.0620149,0.0124601,9.64648,0.467396,-0.324046,-7.76904,3.91797,-0.526855
431,-2.21579e-37,-0.0921648,0.019692,9.66529,0.415911,-0.264108,6.12793,3.92188,-0.531494
432,-2.21766e-37,-0.0867354,0.0161225,9.64879,0.392141,-0.203172,-1.1272,3.9021,-0.524658
433,-2.21953e-37,-0.0822076,0.0369087,9.65559,0.361353,-0.309369,7.64795,3.92261,-0.525879
434,-2.2214e-37,-0.0818497,0.0266013,9.66315,0.454589,-0.334932,-3.15894,3.92285,-0.524414
435,-2.22327e-37,-0.0954475,0.0478597,9.67031,0.50154,-0.227301,-7.35425,3.92188,-0.531006
436,-2.22514e-37,-0.0850616,0.02766,9.64676,0.34715,-0.321792,-1.25415,3.91064,-0.527344
437,-2.227e-37,-0.0844965,0.00680951,9.67473,0.288339,-0.390591,-5.25659,3.92236,-0.526855
438,-2.22887e-37,-0.0720645,0.0383534,9.68476,0.37042,-0.19997,-5.40869,3.9187,-0.531006
439,-2.23074e-37,-0.0684742,0.0276887,9.67945,0.438605,-0.350505,-7.83716,3.92993,-0.526123
440,-2.23261e-37,-0.0719576,0.0208935,9.67238,0.439412,-0.289851,-0.731934,3.91211,-0.531982
441,-2.23448e-37,-0.0714998,0.0269233,9.66859,0.325378,-0.218156,-6.08179,3.91162,-0.523926
442,-2.23635e-37,-0.0735384,0.0232968,9.64858,0.30974,-0.429756,6.19751,3.90894,-0.528564
443,-2.23821e-37,-0.103974,0.0262869,9.65104,0.375108,-0.299277,-3.5603,3.90918,-0.529785
444,-2.24008e-37,-0.0897896,0.0400702,9.68157,0.317629,-0.230502,1.93481,3.91895,-0.524414
445,-2.24195e-37,-0.088216,0.0273382,9.6672,0.350249,-0.304028,-0.959717,3.92578,-0.530518
446,-2.24382e-37,-0.0700192,0.0232968,9.64676,0.358574,-0.364081,4.61475,3.91577,-0.526855
447,-2.24569e-37,-0.0710492,0.0187905,9.66524,0.340221,-0.377195,0.945068,3.91382,-0.529297
448,-2.24756e-37,-0.0706772,0.00836883,9.66917,0.250712,-0.378732,7.54443,3.92163,-0.530762
449,-2.24942e-37,-0.0624661,0.00717451,9.68737,0.322189,-0.240697,-4.30347,3.91553,-0.526855
450,-2.25129e-37,-0.0712354,0.0257432,9.67065,0.449543,-0.249022,4.96436,3.9292,-0.529785
451,-2.25316e-37,-0.0617791,0.020779,9.67425,0.381844,-0.321817,-4.9314,3.91455,-0.528564
452,-2.25503e-37,-0.0741678,0.0358429,9.6577,0.467293,-0.379475,3.59229,3.90381,-0.529297
453,-2.2569e-37,-0.0771434,0.0242553,9.67822,0.467972,-0.344716,5.20166,3.9082,-0.522217
454,-2.25877e-37,-0.0749833,0.0336327,9.66148,0.292515,-0.21954,-6.08032,3.91064,-0.526367
455,-2.26063e-37,-0.0734096,0.0101713,9.6602,0.317399,-0.386468,-2.25903,3.91675,-0.529785
456,-2.2625e-37,-0.0748545,0.00155932,9.6623,0.270678,-0.453218,2.51538,3.91626,-0.527344
457,-2.26437e-37,-0.0516867,0.0252785,9.66308,0.288096,-0.379449,-0.00512695,3.91797,-0.533203
458,-2.26624e-37,-0.0699043,0.00596519,9.66396,0.396188,-0.27858,1.35303,3.92261,-0.523926
459,-2.26811e-37,-0.0863062,0.00477095,9.65157,0.328067,-0.273995,4.0957,3.91138,-0.530273
460,-2.26998e-37,-0.090076,0.0121673,9.70645,0.255656,-0.356038,4.29541,3.91919,-0.528564
461,-2.27184e-37,-0.0876939,0.0339689,9.68574,0.37708,-0.456241,-1.94116,3.91431,-0.526367
462,-2.27371e-37,-0.068839,0.0536392,9.66106,0.372175,-0.347508,5.97437,3.91919,-0.530273
463,-2.27558e-37,-0.0611353,0.0110082,9.70042,0.394997,-0.402963,1.55981,3.92505,-0.525635
464,-2.27745e-37,-0.087186,0.034305,9.63268,0.358958,-0.341028,0.310791,3.91724,-0.530273
465,-2.27932e-37,-0.0738531,0.0220594,9.64735,0.362608,-0.351965,-6.93604,3.92285,-0.525146
466,-2.28118e-37,-0.0740319,0.0363651,9.68552,0.460506,-0.484903,-0.264648,3.91626,-0.527588
467,-2.28305e-37,-0.0703411,0.0397913,9.65241,0.408534,-0.292566,-2.09937,3.91504,-0.530273
468,-2.28492e-37,-0.0787957,0.0337543,9.67292,0.293334,-0.453782,7.71313,3.91309,-0.524414
469,-2.28679e-37,-0.086342,0.0425523,9.70772,0.463784,-0.288877,-2.56421,3.90942,-0.530273
470,-2.28866e-37,-0.0959697,0.0371161,9.67512,0.367628,-0.206015,-0.536865,3.92334,-0.525635
471,-2.29053e-37,-0.0657346,0.0178106,9.64195,0.369613,-0.410033,-4.4624,3.91675,-0.531006
472,-2.29239e-37,-0.0589463,0.0243265,9.6673,0.293052,-0.374557,-0.319824,3.91797,-0.525635
473,-2.29426e-37,-0.057223,0.0115162,9.65296,0.492049,-0.30495,-2.99219,3.91577,-0.528076
474,-2.29613e-37,-0.0611926,0.0331534,9.68001,0.332012,-0.469304,4.49634,3.92603,-0.532715
475,-2.298e-37,-0.0799688,0.00605846,9.65918,0.308075,-0.222152,-3.62622,3.91919,-0.525146
476,-2.29987e-37,-0.0742966,0.0187261,9.64042,0.331026,-0.373097,-5.41211,3.92065,-0.531982
477,-2.30174e-37,-0.0596905,0.0398843,9.67439,0.438426,-0.363901,-2.77515,3.9104,-0.525635
478,-2.3036e-37,-0.0702838,0.0352707,9.67478,0.351543,-0.309446,-1.12671,3.9021,-0.526855
479,-2.30547e-37,-0.0870429,0.0104074,9.67033,0.465398,-0.204581,-2.99268,3.91626,-0.528076
480,-2.30734e-37,-0.0698976,0.0182326,9.67892,0.414515,-0.353182,-1.10522,3.91675,-0.525635
481,-2.30921e-37,-0.0734451,0.00778215,9.6738,0.457483,-0.256014,-0.38208,3.92554,-0.530273
482,-2.31108e-37,-0.0669866,0.0303497,9.67677,0.362108,-0.319973,1.76123,3.93091,-0.526123
483,-2.31295e-37,-0.0576448,0.0071743,9.68999,0.300212,-0.288032,-0.756592,3.93115,-0.533203
484,-2.31481e-37,-0.0729662,0.0210651,9.62954,0.377131,-0.253453,-3.89697,3.92529,-0.530762
485,-2.31668e-37,-0.0713067,0.0533101,9.65253,0.41025,-0.40094,-0.0732422,3.92993,-0.526367
486,-2.31855e-37,-0.08185,0.0415366,9.66044,0.404743,-0.307678,-7.49805,3.91187,-0.531494
487,-2.32042e-37,-0.0776799,0.0421088,9.66402,0.338966,-0.272971,5.75952,3.92261,-0.528564
488,-2.32229e-37,-0.0739318,0.0314654,9.66239,0.36654,-0.259062,-0.84375,3.91748,-0.531982
489,-2.32416e-37,-0.0647261,0.0296628,9.65125,0.441436,-0.267003,-1.15259,3.91309,-0.525635
490,-2.32602e-37,-0.0657847,0.0325383,9.66589,0.474273,-0.340208,-0.0107422,3.92236,-0.525879
491,-2.32789e-37,-0.0616435,0.034899,9.66391,0.341489,-0.366232,-6.81274,3.90918,-0.529297
492,-2.32976e-37,-0.0836096,0.0192984,9.65938,0.445726,-0.353451,-0.791504,3.91772,-0.525879
493,-2.33163e-37,-0.0792323,0.0147351,9.67408,0.304412,-0.334317,7.87207,3.91187,-0.532715
494,-2.3335e-37,-0.0632383,0.040714,9.68404,0.382382,-0.321331,-2.62964,3.91943,-0.526123
495,-2.33537e-37,-0.0634955,0.0387109,9.65665,0.271562,-0.265876,2.09155,3.91968,-0.530273
496,-2.33723e-37,-0.0723081,0.0392763,9.65503,0.415681,-0.41034,-7.40308,3.91919,-0.526123
497,-2.3391e-37,-0.0665933,0.00191727,9.67971,0.340464,-0.290901,-2.53003,3.92334,-0.526855
498,-2.34097e-37,-0.0731521,0.0207862,9.67574,0.24614,-0.344076,-7.66846,3.92139,-0.529785
499,-2.34284e-37,-0.0624443,0.00401274,9.66129,0.338966,-0.365336,2.67139,3.91748,-0.525635
500,-2.34471e-37,-0.071929,0.0272023,9.67926,0.370676,-0.340874,-2.05273,3.91968,-0.529785
501,-2.34658e-37,-0.0666716,0.02148,9.65549,0.400261,-0.297432,-1.05029,3.91504,-0.525146
502,-2.34844e-37,-0.0678594,0.0187693,9.66844,0.387403,-0.267899,-3.72388,3.91382,-0.526855
503,-2.35031e-37,-0.0798475,0.037939,9.66826,0.350749,-0.342514,-3.67627,3.91748,-0.529297
504,-2.35218e-37,-0.103194,0.0318516,9.67451,0.50583,-0.306141,6.07422,3.92261,-0.526123
505,-2.35405e-37,-0.0920066,0.0249275,9.67262,0.455383,-0.214545,0.0515137,3.91504,-0.530273
506,-2.35592e-37,-0.0719865,0.0281897,9.65191,0.298265,-0.341873,6.9209,3.91724,-0.525635
507,-2.35779e-37,-0.0763493,0.0240906,9.6833,0.372341,-0.436441,-1.57544,3.91553,-0.526367
508,-2.35965e-37,-0.0631524,0.0169236,9.68137,0.439668,-0.291464,-0.8396,3.91455,-0.527344
509,-2.36152e-37,-0.0848897,0.032159,9.65954,0.424441,-0.382344,6.18066,3.92163,-0.524658
510,-2.36339e-37,-0.0879585,0.0186475,9.6765,0.491319,-0.22164,5.03613,3.91431,-0.528076
511,-2.36526e-37,-0.0752048,0.0328671,9.64651,0.377772,-0.353323,7.59009,3.92676,-0.526367
512,-2.36713e-37,-0.0742966,0.0231681,9.67426,0.372008,-0.449709,4.66895,3.91406,-0.531006
513,-2.369e-37,-0.0602124,0.029398,9.69394,0.427028,-0.318282,-3.3689,3.92285,-0.523926
514,-2.37086e-37,-0.0662997,0.0325669,9.64823,0.373097,-0.348328,3.15088,3.91187,-0.529297
515,-2.37273e-37,-0.0673154,0.0174601,9.678,0.326838,-0.399864,6.87109,3.91504,-0.528564
516,-2.3746e-37,-0.0790604,0.0383893,9.67776,0.409251,-0.1866,-1.37842,3.92529,-0.525635
517,-2.37647e-37,-0.07587,0.0256213,9.66155,0.428667,-0.480318,-7.07715,3.91089,-0.532715
518,-2.37834e-37,-0.05836,0.0279748,9.67392,0.346317,-0.366335,-6.91797,3.90918,-0.523926
519,-2.38021e-37,-0.0670865,0.0250421,9.67424,0.341258,-0.26439,6.9292,3.91089,-0.532715
520,-2.38207e-37,-0.0655415,0.0176604,9.65611,0.315862,-0.266388,-4.78076,3.91968,-0.528076
521,-2.38394e-37,-0.0590253,0.031122,9.66843,0.337916,-0.290081,-7.05078,3.93018,-0.528076
522,-2.38581e-37,-0.0665286,0.0311435,9.64481,0.348379,-0.401452,1.2019,3.91797,-0.528076
523,-2.38768e-37,-0.0711779,0.0320733,9.65594,0.44985,-0.213495,-5.99365,3.92432,-0.527344
524,-2.38955e-37,-0.0786169,0.0324453,9.63965,0.372597,-0.369818,7.34961,3.9104,-0.531006
525,-2.39142e-37,-0.0805341,0.0272668,9.69484,0.375748,-0.235625,1.31982,3.9082,-0.526123
526,-2.39328e-37,-0.0805771,0.0273957,9.6802,0.301185,-0.279041,4.65918,3.92188,-0.528076
527,-2.39515e-37,-0.0750837,0.0343983,9.6579,0.299072,-0.229273,-3.53174,3.927,-0.531006
528,-2.39702e-37,-0.0792034,0.0254069,9.70959,0.443331,-0.375351,-3.25098,3.91309,-0.525146
529,-2.39889e-37,-0.0685886,0.0229964,9.67644,0.385853,-0.267861,4.66846,3.91455,-0.531006
530,-2.40076e-37,-0.0448984,0.0295126,9.65001,0.376299,-0.249611,-4.09277,3.91504,-0.526123
531,-2.40263e-37,-0.0607348,0.016566,9.67646,0.348008,-0.309548,-6.24829,3.9187,-0.533203
532,-2.40449e-37,-0.0607703,0.0147705,9.66005,0.569801,-0.219796,-3.19604,3.91138,-0.527832
533,-2.40636e-37,-0.0876223,0.00949182,9.67925,0.381229,-0.38242,0.417236,3.91626,-0.526855
534,-2.40823e-37,-0.05424,0.0286185,9.65405,0.181208,-0.463976,6.6145,3.91089,-0.529053
535,-2.4101e-37,-0.0534389,0.0254713,9.66331,0.404116,-0.334138,7.22485,3.92505,-0.527344
536,-2.41197e-37,-0.0577521,0.0251852,9.69278,0.387249,-0.279451,-0.313721,3.91357,-0.531982
537,-2.41384e-37,-0.0760276,0.0346913,9.66919,0.288147,-0.438951,-4.68579,3.927,-0.523438
538,-2.4157e-37,-0.0911129,0.0148064,9.65002,0.440257,-0.217977,-3.479,3.92676,-0.525391
539,-2.41757e-37,-0.0860344,0.041415,9.66566,0.413503,-0.291131,-3.56812,3.91504,-0.528076
540,-2.41944e-37,-0.087887,0.0309074,9.66054,0.460685,-0.355141,1.25146,3.92017,-0.524658
541,-2.42131e-37,-0.0860914,0.0113871,9.66109,0.282845,-0.274252,1.83057,3.91846,-0.532227
542,-2.42318e-37,-0.0762565,0.0118594,9.67183,0.454845,-0.398096,2.62012,3.91675,-0.526123
543,-2.42505e-37,-0.0767071,0.0400988,9.67474,0.385814,-0.31316,6.96973,3.91992,-0.531494
544,-2.42691e-37,-0.0630809,0.00668076,9.65337,0.312955,-0.343666,-7.0332,3.91699,-0.528564
545,-2.42878e-37,-0.0649407,0.0299704,9.68026,0.338146,-0.30942,0.361816,3.91846,-0.525635
546,-2.43065e-37,-0.082758,0.0256712,9.68822,0.342923,-0.275532,-2.11743,3.92822,-0.531006
547,-2.43252e-37,-0.0612357,0.0175533,9.66409,0.358996,-0.324609,-2.01587,3.93115,-0.525635
548,-2.43439e-37,-0.0864993,0.0328745,9.64602,0.412453,-0.364926,-5.40356,3.91479,-0.531982
549,-2.43626e-37,-0.0709061,0.0175459,9.67906,0.449888,-0.221819,7.92798,3.90918,-0.527344
550,-2.43812e-37,-0.0891745,0.0165874,9.67045,0.281744,-0.262341,7.43945,3.92163,-0.528076
551,-2.43999e-37,-0.0812563,0.0170595,9.67941,0.377861,-0.34528,-0.834717,3.91064,-0.525146
552,-2.44186e-37,-0.082243,0.0393332,9.66966,0.383804,-0.323277,7.39258,3.91748,-0.525146
553,-2.44373e-37,-0.0781377,0.0415437,9.66768,0.394946,-0.367359,-6.04053,3.92017,-0.530518
554,-2.4456e-37,-0.0626732,0.0278031,9.69335,0.30212,-0.287904,0.36499,3.91602,-0.525146
555,-2.44747e-37,-0.0825009,0.0251422,9.69398,0.331679,-0.332076,-7.28125,3.90649,-0.530273
556,-2.44933e-37,-0.0670436,0.045113,9.68569,0.455741,-0.191851,5.92822,3.91406,-0.529785
557,-2.4512e-37,-0.0822937,0.0292196,9.67009,0.293142,-0.303144,5.82764,3.91064,-0.528076
558,-2.45307e-37,-0.0691608,0.0309432,9.66421,0.423339,-0.300967,-5.56323,3.9165,-0.531006
559,-2.45494e-37,-0.0721007,0.0301921,9.67717,0.435813,-0.246742,1.04248,3.91919,-0.528564
560,-2.45681e-37,-0.0785313,0.0387114,9.68996,0.444932,-0.354245,-7.62207,3.92603,-0.531006
561,-2.45868e-37,-0.0874152,0.0375527,9.68293,0.343244,-0.366002,-7.07812,3.91187,-0.526855
562,-2.46054e-37,-0.0655487,0.0314511,9.66606,0.329899,-0.35153,-6.86377,3.90796,-0.525879
563,-2.46241e-37,-0.0846968,0.0149852,9.63411,0.443306,-0.347944,0.163086,3.91016,-0.530273
564,-2.46428e-37,-0.0654128,0.00498553,9.66324,0.306205,-0.338928,-7.86914,3.91455,-0.526367
565,-2.46615e-37,-0.0694753,0.0261434,9.67741,0.330001,-0.365951,7.45386,3.91089,-0.531494
566,-2.46802e-37,-0.0856267,0.0250779,9.67242,0.24678,-0.193003,1.42529,3.90771,-0.522949
567,-2.46989e-37,-0.0747687,0.0122528,9.67069,0.378694,-0.292694,-6.86841,3.91187,-0.533203
568,-2.47175e-37,-0.0941812,0.0207788,9.67467,0.432752,-0.369652,-1.28906,3.90576,-0.529541
569,-2.47362e-37,-0.0698261,0.0367513,9.65888,0.22611,-0.247126,2.59448,3.90454,-0.528076
570,-2.47549e-37,-0.0731875,0.012274,9.68356,0.41522,-0.38657,4.04126,3.91309,-0.529785
571,-2.47736e-37,-0.0745326,0.030607,9.66293,0.380295,-0.375159,-7.87891,3.92188,-0.525146
572,-2.47923e-37,-0.0810632,0.0245343,9.67982,0.341361,-0.32411,7.65259,3.91919,-0.531006
573,-2.4811e-37,-0.0701908,0.0152213,9.66883,0.318308,-0.422558,-0.316895,3.91602,-0.525635
574,-2.48296e-37,-0.0687815,0.028976,9.6849,0.348008,-0.262751,3.98975,3.91235,-0.526855
575,-2.48483e-37,-0.0800475,0.0361719,9.65387,0.360277,-0.181323,-1.40918,3.90894,-0.528076
576,-2.4867e-37,-0.0617433,0.027002,9.65366,0.364619,-0.350121,6.40503,3.9104,-0.525635
577,-2.48857e-37,-0.0621081,0.0357213,9.68092,0.369639,-0.35979,-2.46338,3.91235,-0.528076
578,-2.49044e-37,-0.0764498,0.0257934,9.68533,0.371432,-0.517997,-0.583496,3.91919,-0.525635
579,-2.49231e-37,-0.064068,0.048017,9.68617,0.373059,-0.358061,-0.0512695,3.91333,-0.532715
580,-2.49417e-37,-0.0867565,0.0123671,9.68061,0.395112,-0.280066,-5.87036,3.91016,-0.527832
581,-2.49604e-37,-0.0742109,-0.00412702,9.67345,0.434341,-0.355052,-7.34985,3.91846,-0.524658
582,-2.49791e-37,-0.0728946,0.0275241,9.67065,0.43639,-0.348136,1.24902,3.92163,-0.530273
583,-2.49978e-37,-0.0762777,0.0315725,9.65966,0.422315,-0.334266,-5.05127,3.92578,-0.525635
584,-2.50165e-37,-0.0784095,0.026065,9.63793,0.37927,-0.332498,3.08545,3.92188,-0.531982
585,-2.50352e-37,-0.0685314,0.0248418,9.64872,0.444817,-0.286675,-0.21167,3.91553,-0.525146
586,-2.50538e-37,-0.0619722,0.0189479,9.6799,0.38771,-0.266183,6.45068,3.91553,-0.528809
587,-2.50725e-37,-0.0560568,0.0247059,9.67592,0.291016,-0.376273,2.41113,3.91577,-0.530273
588,-2.50912e-37,-0.0584459,0.0366655,9.69031,0.322701,-0.361622,-7.03467,3.91846,-0.525146
589,-2.51099e-37,-0.0814637,0.016566,9.6568,0.365733,-0.386007,5.02173,3.92505,-0.532715
590,-2.51286e-37,-0.0587034,0.0291192,9.65213,0.230157,-0.351376,3.67676,3.91089,-0.525635
591,-2.51473e-37,-0.0855408,0.00732451,9.68109,0.4488,-0.332934,1.41772,3.91357,-0.530273
592,-2.51659e-37,-0.0794752,0.023869,9.66761,0.411301,-0.254529,-1.16113,3.91943,-0.526367
593,-2.51846e-37,-0.0862275,0.0107293,9.69023,0.38584,-0.335803,-4.94189,3.92236,-0.527344
594,-2.52033e-37,-0.0747257,0.0198634,9.68232,0.484749,-0.362646,2.46338,3.91602,-0.529297
595,-2.5222e-37,-0.0801333,0.030886,9.65651,0.396239,-0.188341,-1.21777,3.92261,-0.527832
596,-2.52407e-37,-0.0762491,0.0206429,9.66592,0.349289,-0.466666,7.38794,3.9209,-0.531006
597,-2.52594e-37,-0.0870998,0.0191194,9.64982,0.422315,-0.23747,-5.03467,3.91309,-0.523926
598,-2.5278e-37,-0.0643398,0.0195773,9.66567,0.465423,-0.274866,-2.61426,3.90771,-0.530273
599,-2.52967e-37,-0.0510498,0.0359144,9.65196,0.348904,-0.378143,0.989014,3.92041,-0.529785
600,-2.53154e-37,-0.0681594,0.0252567,9.68766,0.267605,-0.230835,5.55103,3.92163,-0.526367
601,-2.53341e-37,-0.0880517,0.0294126,9.61665,0.36686,-0.2575,-1.4939,3.90186,-0.529785
602,-2.53528e-37,-0.0775225,0.0289833,9.65305,0.467959,-0.362851,-2.41113,3.9126,-0.526123
603,-2.53715e-37,-0.0845466,0.0101499,9.66671,0.289172,-0.277812,3.46045,3.91577,-0.531006
604,-2.53901e-37,-0.0754414,0.0363797,9.62348,0.317885,-0.277325,6.12671,3.92285,-0.528076
605,-2.54088e-37,-0.0897968,0.033883,9.68816,0.31932,-0.314901,-7.86523,3.91162,-0.527344
606,-2.54275e-37,-0.0831661,0.0169594,9.66654,0.498594,-0.203787,3.98438,3.91626,-0.531494
607,-2.54462e-37,-0.0608635,0.0205859,9.66398,0.562309,-0.258448,-6.28491,3.90674,-0.526855
608,-2.54649e-37,-0.0840244,0.0117664,9.68513,0.370203,-0.357716,-2.2793,3.90063,-0.532227
609,-2.54836e-37,-0.0676874,0.0128608,9.66082,0.33214,-0.271613,3.98242,3.91772,-0.528076
610,-2.55022e-37,-0.0772648,0.0342619,9.67511,0.39177,-0.43516,1.31006,3.91553,-0.528076
611,-2.55209e-37,-0.0774084,0.048146,9.63439,0.385776,-0.264915,-5.66333,3.9126,-0.528564
612,-2.55396e-37,-0.0789674,0.0256286,9.65536,0.326338,-0.217542,5.29517,3.91699,-0.525146
613,-2.55583e-37,-0.0758559,0.0412504,9.6731,0.328989,-0.400658,-3.104,3.92114,-0.528076
614,-2.5577e-37,-0.08881,0.018333,9.67427,0.360136,-0.339901,4.98535,3.91309,-0.525635
615,-2.55957e-37,-0.0807055,0.0115948,9.62846,0.41846,-0.339734,7.23022,3.92114,-0.531494
616,-2.56143e-37,-0.0714283,0.0100283,9.68143,0.419497,-0.236983,-3.51782,3.91675,-0.529053
617,-2.5633e-37,-0.0682024,0.0309074,9.63302,0.476258,-0.372354,3.12842,3.92896,-0.527344
618,-2.56517e-37,-0.0579309,0.0177963,9.668,0.469176,-0.287405,6.55835,3.91357,-0.530273
619,-2.56704e-37,-0.062244,0.0230035,9.69,0.334765,-0.428808,-7.89307,3.93213,-0.526855
620,-2.56891e-37,-0.0640176,0.0300131,9.66419,0.416295,-0.214289,5.82251,3.91455,-0.530273
621,-2.57078e-37,-0.0659346,0.0213939,9.66089,0.36052,-0.315234,-3.51343,3.91333,-0.523926
622,-2.57264e-37,-0.0687607,0.0153573,9.68138,0.42047,-0.197255,0.255371,3.91992,-0.527588
623,-2.57451e-37,-0.0629947,0.0193195,9.67744,0.382382,-0.266439,-4.31665,3.92529,-0.531006
624,-2.57638e-37,-0.0691606,0.0171166,9.64473,0.492293,-0.326274,-6.72241,3.91992,-0.526123
625,-2.57825e-37,-0.0566148,0.0328387,9.66587,0.347214,-0.195565,5.65259,3.92407,-0.531982
626,-2.58012e-37,-0.0649333,0.0180036,9.63914,0.497851,-0.343564,-5.55957,3.91357,-0.525146
627,-2.58199e-37,-0.0750408,0.0177107,9.65416,0.393422,-0.394792,2.36499,3.91113,-0.531982
628,-2.58385e-37,-0.0753624,0.0335039,9.67018,0.362659,-0.398762,-5.14111,3.91455,-0.526855
629,-2.58572e-37,-0.0879442,0.0305212,9.66337,0.424236,-0.324532,-2.41089,3.9126,-0.528564
630,-2.58759e-37,-0.0524592,0.0568582,9.64311,0.45692,-0.368461,-7.05225,3.93115,-0.527588
631,-2.58946e-37,-0.0758992,0.0206292,9.61575,0.305847,-0.368,4.91113,3.92944,-0.522949
632,-2.59133e-37,-0.0703265,0.0153999,9.66893,0.392372,-0.353656,6.01978,3.92432,-0.528076
633,-2.59319e-37,-0.0564002,0.0232968,9.68112,0.41253,-0.369716,2.14771,3.91699,-0.523926
634,-2.59506e-37,-0.0801623,0.024084,9.66537,0.362236,-0.353899,-3.46875,3.91895,-0.526367
635,-2.59693e-37,-0.0745751,0.0151566,9.66185,0.448377,-0.229977,0.354736,3.92383,-0.530273
636,-2.5988e-37,-0.0741395,0.0335899,9.64659,0.452322,-0.290722,-5.10083,3.92358,-0.527344
637,-2.60067e-37,-0.0574874,0.0210794,9.65203,0.344691,-0.303119,6.55444,3.9165,-0.531006
638,-2.60254e-37,-0.0676373,0.0311864,9.65571,0.365169,-0.360751,4.19263,3.91724,-0.523926
639,-2.6044e-37,-0.0620938,0.0274884,9.6447,0.354872,-0.383676,3.09229,3.9165,-0.528564
640,-2.60627e-37,-0.0766072,0.0389046,9.68146,0.36435,-0.366463,-0.415527,3.91113,-0.527344
641,-2.60814e-37,-0.0677875,0.0222954,9.67078,0.438234,-0.33027,-7.6145,3.92065,-0.526367
642,-2.61001e-37,-0.0657346,0.0296915,9.65584,0.333292,-0.35924,-1.48218,3.92432,-0.531982
643,-2.61188e-37,-0.0837954,0.00923408,9.66997,0.290914,-0.453577,-6.83423,3.92529,-0.525146
644,-2.61375e-37,-0.0765924,0.0244912,9.62893,0.351235,-0.208192,-1.54688,3.9021,-0.528564
645,-2.61561e-37,-0.0782875,0.0339758,9.67452,0.494905,-0.298124,-7.86377,3.91064,-0.526855
646,-2.61748e-37,-0.0805052,0.0179608,9.66601,0.428334,-0.375505,6.87451,3.9126,-0.526367
647,-2.61935e-37,-0.0761424,0.0186406,9.67139,0.369985,-0.241337,-0.122314,3.92725,-0.530273
648,-2.62122e-37,-0.071335,0.0393546,9.67605,0.361327,-0.377426,5.97998,3.91479,-0.526367
649,-2.62309e-37,-0.0694394,0.0251849,9.67652,0.375697,-0.242336,1.30322,3.9209,-0.530273
650,-2.62496e-37,-0.0663641,0.0263582,9.64524,0.43274,-0.327606,-7.03125,3.91553,-0.527832
651,-2.62682e-37,-0.0772793,0.0145203,9.64604,0.424249,-0.285932,5.72681,3.90771,-0.531494
652,-2.62869e-37,-0.0865783,0.0239336,9.67905,0.383842,-0.26211,3.15405,3.90942,-0.528564
653,-2.63056e-37,-0.0808987,0.036458,9.66011,0.340119,-0.360802,3.25293,3.91382,-0.526855
654,-2.63243e-37,-0.0790246,0.0328459,9.64923,0.349852,-0.372354,-4.03955,3.91431,-0.531006
655,-2.6343e-37,-0.0800972,0.0283608,9.66228,0.360034,-0.276967,1.46436,3.91772,-0.525146
656,-2.63617e-37,-0.0650694,0.0107293,9.68078,0.399774,-0.438439,-1.85498,3.92847,-0.531006
657,-2.63803e-37,-0.0668293,0.0375313,9.69461,0.379116,-0.394088,3.72363,3.91504,-0.520996
658,-2.6399e-37,-0.0655558,0.026208,9.67117,0.406472,-0.351427,-1.42114,3.91821,-0.5271
659,-2.64177e-37,-0.0636388,0.0315655,9.65263,0.43735,-0.3878,0.270508,3.9082,-0.527588
660,-2.64364e-37,-0.0742966,0.0217017,9.65702,0.332063,-0.305834,-6.65332,3.90747,-0.527344
661,-2.64551e-37,-0.0833092,0.0309861,9.63869,0.375979,-0.287443,-0.420654,3.91504,-0.528564
662,-2.64738e-37,-0.0719218,0.0152642,9.65542,0.445444,-0.326658,0.212646,3.91235,-0.526367
663,-2.64924e-37,-0.080913,0.0285184,9.69194,0.407305,-0.263494,7.23975,3.91382,-0.532715
664,-2.65111e-37,-0.0787671,0.0251565,9.63519,0.41522,-0.38657,5.87524,3.91431,-0.528076
665,-2.65298e-37,-0.0628232,0.0243123,9.66041,0.453756,-0.32329,7.95898,3.92554,-0.529053
666,-2.65485e-37,-0.0647261,0.0353279,9.69129,0.278747,-0.162138,-4.24146,3.90845,-0.528076
667,-2.65672e-37,-0.0472731,0.0357141,9.65589,0.346522,-0.396534,-1.05298,3.91699,-0.529541
668,-2.65859e-37,-0.0729735,0.0116522,9.66312,0.487324,-0.347303,5.07861,3.92188,-0.530273
669,-2.66045e-37,-0.0674084,0.0134688,9.64826,0.375812,-0.300276,-5.31689,3.92847,-0.522217
670,-2.66232e-37,-0.0660276,0.0273808,9.66424,0.342104,-0.362096,-0.422607,3.9165,-0.525635
671,-2.66419e-37,-0.0837598,0.0320805,9.66286,0.360853,-0.258371,-2.10767,3.92139,-0.530273
672,-2.66606e-37,-0.0861775,0.0210222,9.64504,0.390835,-0.274431,1.97607,3.92749,-0.528076
673,-2.66793e-37,-0.0809988,0.0456137,9.65501,0.51596,-0.293821,3.8208,3.9209,-0.529297
674,-2.6698e-37,-0.0570439,0.0223526,9.6716,0.330321,-0.355615,-5.62842,3.92603,-0.523438
675,-2.67166e-37,-0.0640966,0.0245772,9.66263,0.450068,-0.278644,2.77759,3.9165,-0.531006
676,-2.67353e-37,-0.0859557,0.0256286,9.65417,0.446981,-0.321817,2.19141,3.92358,-0.528564
677,-2.6754e-37,-0.0704484,0.0156433,9.6779,0.359624,-0.277261,-2.01025,3.92676,-0.527344
678,-2.67727e-37,-0.0700549,0.0143915,9.67979,0.325454,-0.337954,-3.77368,3.91162,-0.529297
679,-2.67914e-37,-0.0637318,0.0291764,9.67543,0.400799,-0.4733,-6.94678,3.8999,-0.523926
680,-2.68101e-37,-0.071722,0.0270451,9.69414,0.46436,-0.211599,-1.3147,3.91675,-0.531006
681,-2.68287e-37,-0.0917355,0.0493405,9.66653,0.44424,-0.279554,-5.50171,3.90942,-0.522217
682,-2.68474e-37,-0.0563286,0.0367155,9.68602,0.374314,-0.326223,4.57275,3.90771,-0.528076
683,-2.68661e-37,-0.0694112,0.0280606,9.67398,0.463618,-0.210613,-3.36938,3.92334,-0.529785
684,-2.68848e-37,-0.0651982,0.0232897,9.63004,0.316669,-0.318923,5.34692,3.91724,-0.525146
685,-2.69035e-37,-0.0562786,0.028268,9.66075,0.266657,-0.423762,-1.67554,3.91211,-0.531494
686,-2.69222e-37,-0.06464,0.00625137,9.69121,0.349007,-0.289364,6.19604,3.90991,-0.526123
687,-2.69408e-37,-0.0750333,0.0319947,9.67048,0.340336,-0.357344,1.78223,3.91528,-0.533203
688,-2.69595e-37,-0.0750119,0.0178463,9.67104,0.449466,-0.334061,-1.42188,3.9187,-0.527832
689,-2.69782e-37,-0.0808847,0.0159653,9.64751,0.436748,-0.240082,2.99634,3.90967,-0.527344
690,-2.69969e-37,-0.0797542,0.0280248,9.65989,0.459468,-0.345318,-2.10791,3.92139,-0.531982
691,-2.70156e-37,-0.0835309,0.0443047,9.68148,0.325736,-0.226391,6.2981,3.91187,-0.526855
692,-2.70343e-37,-0.0559642,0.00454227,9.66004,0.395253,-0.233282,3.35327,3.91772,-0.529297
693,-2.70529e-37,-0.0917996,0.0262152,9.65313,0.403066,-0.359534,-1.8938,3.91846,-0.526367
694,-2.70716e-37,-0.0674444,0.0225102,9.658,0.420611,-0.33602,0.45874,3.92432,-0.529297
695,-2.70903e-37,-0.0717213,0.0311504,9.67252,0.403232,-0.323738,5.07056,3.92773,-0.529297
696,-2.7109e-37,-0.0815135,0.0184971,9.6532,0.4728,-0.364619,-4.57837,3.92554,-0.526855
697,-2.71277e-37,-0.080355,0.0413005,9.70553,0.514052,-0.262059,0.734375,3.91431,-0.531006
698,-2.71464e-37,-0.080448,0.0288975,9.6492,0.379155,-0.32799,4.36304,3.90771,-0.525635
699,-2.7165e-37,-0.0663784,0.0457138,9.65547,0.343833,-0.296024,4.72852,3.90894,-0.528076
700,-2.71837e-37,-0.0662785,0.0282611,9.66531,0.42275,-0.435493,-1.59277,3.92822,-0.529541
701,-2.72024e-37,-0.0744325,0.0295842,9.67659,0.431971,-0.426656,3.87109,3.92261,-0.528076
702,-2.72211e-37,-0.0637245,0.0253208,9.65443,0.269487,-0.348405,6.08838,3.91187,-0.529785
703,-2.72398e-37,-0.0784309,0.022088,9.64225,0.466909,-0.278504,-6.82666,3.91943,-0.525635
704,-2.72585e-37,-0.0623513,0.023397,9.67285,0.40897,-0.295793,-4.77856,3.91772,-0.531494
705,-2.72771e-37,-0.0827441,0.0418227,9.68941,0.412082,-0.366847,6.90967,3.92554,-0.526367
706,-2.72958e-37,-0.0805768,0.024241,9.64786,0.390451,-0.344537,0.480469,3.9082,-0.524658
707,-2.73145e-37,-0.0886742,0.0239765,9.66652,0.42722,-0.257295,-1.78345,3.91406,-0.528076
708,-2.73332e-37,-0.0830159,0.0206646,9.66466,0.432663,-0.374429,-2.31714,3.9209,-0.524658
709,-2.73519e-37,-0.0490685,0.0350418,9.718,0.295499,-0.334419,4.55591,3.92041,-0.529297
710,-2.73706e-37,-0.0707277,0.0269308,9.66774,0.349096,-0.324481,4.65161,3.92725,-0.522949
711,-2.73892e-37,-0.0497766,0.0499912,9.65335,0.351158,-0.299917,0.140137,3.92725,-0.529297
712,-2.74079e-37,-0.0684599,0.0344123,9.64728,0.321856,-0.357293,6.49194,3.92407,-0.527832
713,-2.74266e-37,-0.0942526,0.0156716,9.64893,0.394293,-0.301966,1.09546,3.91895,-0.528076
714,-2.74453e-37,-0.0940813,0.0444048,9.6662,0.314428,-0.2596,5.38403,3.9292,-0.531494
715,-2.7464e-37,-0.0715644,0.0407571,9.67476,0.466064,-0.342181,-3.89136,3.92139,-0.527344
716,-2.74827e-37,-0.0586676,0.0405423,9.66335,0.438861,-0.421815,-0.0500488,3.91235,-0.531982
717,-2.75013e-37,-0.0577445,0.0274381,9.6877,0.388517,-0.205862,-4.8396,3.92432,-0.525146
718,-2.752e-37,-0.0702195,0.0176389,9.64638,0.278235,-0.296459,-4.60938,3.90918,-0.529297
719,-2.75387e-37,-0.0718217,0.0249277,9.63335,0.407305,-0.287802,-6.82251,3.9165,-0.529297
720,-2.75574e-37,-0.0489472,0.00943494,9.66436,0.29879,-0.3409,-7.35376,3.92139,-0.523926
721,-2.75761e-37,-0.0705481,0.0175457,9.65383,0.461069,-0.301992,-4.56592,3.91577,-0.529297
722,-2.75948e-37,-0.0612781,0.047745,9.66705,0.475029,-0.291874,1.84351,3.90869,-0.526123
723,-2.76134e-37,-0.0905762,0.0138263,9.69328,0.336174,-0.250277,3.20972,3.90723,-0.530273
724,-2.76321e-37,-0.0781231,0.0253709,9.65942,0.278427,-0.262264,-7.87378,3.91797,-0.529541
725,-2.76508e-37,-0.0888598,0.0313008,9.65044,0.406626,-0.446533,-1.35596,3.9082,-0.525635
726,-2.76695e-37,-0.0807771,0.00537179,9.68236,0.315286,-0.402374,-1.73584,3.91772,-0.531982
727,-2.76882e-37,-0.0877296,0.0304926,9.65052,0.295294,-0.27169,-4.15552,3.92261,-0.525635
728,-2.77069e-37,-0.0623945,0.0190197,9.69593,0.359867,-0.325685,-7.96826,3.91016,-0.531494
729,-2.77255e-37,-0.053446,0.0202425,9.67544,0.498338,-0.21457,-6.66016,3.91284,-0.525146
730,-2.77442e-37,-0.0524802,0.0090481,9.65387,0.296626,-0.304451,-1.15186,3.9126,-0.5271
731,-2.77629e-37,-0.0934734,0.0433534,9.63935,0.322829,-0.432138,-5.93188,3.91724,-0.526855
732,-2.77816e-37,-0.0795968,0.0262724,9.67074,0.359176,-0.294026,-3.14575,3.91309,-0.526855
733,-2.78003e-37,-0.0538466,0.0308144,9.65685,0.411275,-0.246972,6.9751,3.91602,-0.531006
734,-2.7819e-37,-0.0692393,0.0275168,9.68323,0.428462,-0.388209,-7.24243,3.9165,-0.525635
735,-2.78376e-37,-0.0684956,0.0353708,9.68111,0.409559,-0.148767,-6.76733,3.91431,-0.529297
736,-2.78563e-37,-0.0801762,0.0213083,9.67111,0.334522,-0.350121,-6.3916,3.9082,-0.530273
737,-2.7875e-37,-0.090648,0.0151426,9.67909,0.445303,-0.209281,-2.10547,3.91943,-0.526367
738,-2.78937e-37,-0.0533888,0.032431,9.66979,0.372098,-0.418473,-2.20532,3.91602,-0.529053
739,-2.79124e-37,-0.0772292,0.0137978,9.67325,0.414771,-0.343666,1.37451,3.90649,-0.523926
740,-2.79311e-37,-0.0770004,0.0442761,9.68675,0.374378,-0.362928,3.65771,3.92505,-0.531982
741,-2.79497e-37,-0.0872718,0.0398342,9.64516,0.360853,-0.376196,-6.81641,3.91211,-0.526367
742,-2.79684e-37,-0.07165,0.033275,9.66507,0.365758,-0.236061,-3.62354,3.91724,-0.525146
743,-2.79871e-37,-0.0730019,0.0199636,9.68402,0.39072,-0.207194,0.731934,3.91626,-0.527344
744,-2.80058e-37,-0.0550199,0.0209366,9.66503,0.266516,-0.307781,4.8335,3.90894,-0.527344
745,-2.80245e-37,-0.0702052,0.0119953,9.64763,0.444266,-0.292591,4.62036,3.91138,-0.531006
746,-2.80432e-37,-0.0788601,0.0432389,9.67058,0.305283,-0.320357,0.0107422,3.90649,-0.525635
747,-2.80618e-37,-0.0573157,0.0313652,9.65748,0.276198,-0.362313,1.58447,3.93774,-0.531494
748,-2.80805e-37,-0.0713711,0.0200923,9.67313,0.424428,-0.329386,2.04492,3.91504,-0.529053
749,-2.80992e-37,-0.0868284,0.0201353,9.69024,0.437837,-0.341924,4.12305,3.93018,-0.529297
750,-2.81179e-37,-0.0843535,0.0117593,9.65202,0.387198,-0.202404,2.08398,3.92505,-0.532715
751,-2.81366e-37,-0.0764858,0.0123318,9.65908,0.457124,-0.278478,-3.83618,3.91919,-0.526367
752,-2.81553e-37,-0.0746975,0.0320592,9.67844,0.486504,-0.269769,4.64038,3.90479,-0.529785
753,-2.81739e-37,-0.0780518,0.0416009,9.66722,0.29076,-0.284241,-1.8894,3.91504,-0.523438
754,-2.81926e-37,-0.067001,0.0306932,9.66912,0.32831,-0.326914,-3.41626,3.91919,-0.527588
755,-2.82113e-37,-0.0496121,0.0275456,9.68514,0.314504,-0.282218,-5.93579,3.92017,-0.530762
756,-2.823e-37,-0.0777156,0.0278532,9.65687,0.377912,-0.483622,1.93433,3.91943,-0.526367
757,-2.82487e-37,-0.0802909,0.0201928,9.67748,0.303196,-0.402758,2.04614,3.91406,-0.529297
758,-2.82674e-37,-0.1073,0.0478456,9.64623,0.319614,-0.270871,-5.77783,3.91992,-0.525146
759,-2.8286e-37,-0.0799473,0.0291908,9.65151,0.400709,-0.336008,-0.534912,3.92188,-0.531494
760,-2.83047e-37,-0.0757558,0.0352635,9.69884,0.507853,-0.258729,-0.368652,3.91528,-0.529053
761,-2.83234e-37,-0.0841961,0.0276171,9.66649,0.42526,-0.320408,2.77319,3.91992,-0.526367
762,-2.83421e-37,-0.0649117,0.0456564,9.66142,0.461389,-0.247203,1.94629,3.91064,-0.532715
763,-2.83608e-37,-0.0743755,0.0143345,9.67775,0.278542,-0.288083,-4.2439,3.9104,-0.525146
764,-2.83795e-37,-0.0811562,0.0362077,9.65881,0.410481,-0.178454,-6.25513,3.92358,-0.531982
765,-2.83981e-37,-0.0829301,0.00857626,9.68387,0.324199,-0.279157,0.0842285,3.92993,-0.525635
766,-2.84168e-37,-0.083817,0.0184758,9.68904,0.328374,-0.357575,-7.07959,3.91235,-0.528076
767,-2.84355e-37,-0.0875222,0.021995,9.67074,0.325339,-0.389567,3.89185,3.90698,-0.528564
768,-2.84542e-37,-0.089339,0.0432962,9.68465,0.481099,-0.419587,4.23926,3.92188,-0.525635
769,-2.84729e-37,-0.0695829,0.0281321,9.67358,0.333753,-0.440872,7.71045,3.91504,-0.531006
770,-2.84916e-37,-0.0737172,0.0345625,9.63685,0.33433,-0.285829,2.94312,3.9104,-0.523438
771,-2.85102e-37,-0.0709991,0.0162083,9.67054,0.411006,-0.263519,1.1001,3.91553,-0.528076
772,-2.85289e-37,-0.0834232,0.0190405,9.66909,0.288109,-0.25969,-5.74463,3.90308,-0.527832
773,-2.85476e-37,-0.0662565,0.00515695,9.69289,0.364158,-0.297356,5.03662,3.91382,-0.524658
774,-2.85663e-37,-0.0831804,0.0389901,9.68484,0.541984,-0.277351,5.5061,3.91602,-0.533203
775,-2.8585e-37,-0.0596261,0.0381461,9.66753,0.561131,-0.265312,-7.40649,3.92163,-0.526367
776,-2.86037e-37,-0.0855337,0.030421,9.6597,0.432317,-0.413631,-1.88647,3.9126,-0.531494
777,-2.86223e-37,-0.0683597,0.0235329,9.67039,0.414362,-0.205682,-4.97559,3.90845,-0.525146
778,-2.8641e-37,-0.0854195,0.00975669,9.66248,0.299187,-0.261649,-4.93018,3.91357,-0.526367
779,-2.86597e-37,-0.0547622,0.0329531,9.66406,0.3602,-0.380141,6.25,3.90869,-0.529053
780,-2.86784e-37,-0.0488754,0.024334,9.66973,0.391834,-0.354245,0.0449219,3.91992,-0.525146
781,-2.86971e-37,-0.0756699,0.0278675,9.67247,0.35591,-0.456599,0.633057,3.91187,-0.529785
782,-2.87158e-37,-0.0665071,0.0238261,9.65951,0.370446,-0.191594,7.40332,3.90918,-0.526123
783,-2.87344e-37,-0.0762283,0.024091,9.68742,0.4509,-0.25084,-0.895996,3.91724,-0.531982
784,-2.87531e-37,-0.0706057,0.0313008,9.6741,0.389119,-0.402195,5.46484,3.90747,-0.530762
785,-2.87718e-37,-0.0885307,0.0288331,9.6731,0.252646,-0.0973341,-1.20093,3.90991,-0.528564
786,-2.87905e-37,-0.0643184,0.0142413,9.64529,0.357267,-0.378053,-5.71362,3.91089,-0.531006
787,-2.88092e-37,-0.0815281,0.0335898,9.64152,0.421866,-0.418921,-3.87524,3.90918,-0.522217
788,-2.88279e-37,-0.0760776,0.0227675,9.63631,0.405563,-0.304092,4.19263,3.91724,-0.529785
789,-2.88465e-37,-0.0680665,0.0324381,9.68333,0.335559,-0.315029,6.07495,3.92212,-0.524414
790,-2.88652e-37,-0.0615643,0.0189763,9.6635,0.315939,-0.292361,-1.72339,3.90845,-0.525879
791,-2.88839e-37,-0.0693182,0.0418799,9.66654,0.33182,-0.297842,6.18677,3.91675,-0.528076
792,-2.89026e-37,-0.0598836,0.0310076,9.6245,0.396047,-0.250635,7.24219,3.91235,-0.526123
793,-2.89213e-37,-0.0692392,0.0298843,9.66162,0.370574,-0.313672,-6.03345,3.91479,-0.528564
794,-2.89399e-37,-0.0779374,0.0255213,9.66768,0.364952,-0.288493,2.72339,3.91772,-0.523926
795,-2.89586e-37,-0.0614361,0.0249923,9.65794,0.396508,-0.330616,-6.97754,3.91479,-0.528076
796,-2.89773e-37,-0.0690532,0.0305781,9.68188,0.369639,-0.380474,-6.03687,3.91724,-0.525146
797,-2.8996e-37,-0.0764637,0.0289402,9.66762,0.341694,-0.375466,-6.84741,3.9043,-0.528564
798,-2.90147e-37,-0.071507,0.0175388,9.65145,0.405268,-0.320472,4.66479,3.91748,-0.531006
799,-2.90334e-37,-0.0750548,0.0357213,9.67287,0.333856,-0.363428,1.41309,3.91699,-0.526367
800,-2.9052e-37,-0.0703909,0.0400915,9.68171,0.454678,-0.277671,0.72168,3.92407,-0.531006
801,-2.90707e-37,-0.071557,0.030278,9.65103,0.467306,-0.315631,-4.6167,3.91455,-0.525635
802,-2.90894e-37,-0.078574,0.0380746,9.64002,0.34382,-0.365374,-4.44922,3.90698,-0.526367
803,-2.91081e-37,-0.0699548,0.0198778,9.68084,0.41221,-0.265645,4.88135,3.9126,-0.527344
804,-2.91268e-37,-0.0820503,0.0157577,9.64669,0.389849,-0.241875,1.71802,3.92432,-0.526123
805,-2.91455e-37,-0.073474,0.0275313,9.65873,0.330296,-0.431292,1.41821,3.91309,-0.531494
806,-2.91641e-37,-0.0703198,0.0269521,9.67885,0.405332,-0.407292,-1.05396,3.91797,-0.523438
807,-2.91828e-37,-0.0676301,0.03477,9.67846,0.3654,-0.231834,-1.677,3.91309,-0.531494
808,-2.92015e-37,-0.080398,0.0494905,9.65635,0.457842,-0.379398,-5.14111,3.91455,-0.530762
809,-2.92202e-37,-0.0647261,0.0325955,9.6877,0.407433,-0.355244,-4.26392,3.92505,-0.527344
810,-2.92389e-37,-0.06959,0.0261866,9.64969,0.423967,-0.399236,-3.87646,3.91016,-0.527344
811,-2.92576e-37,-0.0665214,-0.00436323,9.65278,0.422609,-0.334496,-5.19336,3.91431,-0.523926
812,-2.92762e-37,-0.06434,0.020865,9.67182,0.502295,-0.373929,5.79736,3.90234,-0.529785
813,-2.92949e-37,-0.0743106,0.0134471,9.64508,0.336904,-0.338082,-7.86597,3.91211,-0.523926
814,-2.93136e-37,-0.0772367,0.0234401,9.69066,0.394741,-0.311469,-0.99292,3.91138,-0.528076
815,-2.93323e-37,-0.0585889,0.0284111,9.68241,0.385661,-0.348891,-1.32056,3.92114,-0.531006
816,-2.9351e-37,-0.0828297,0.0379598,9.69767,0.258345,-0.345946,-3.93433,3.91431,-0.527344
817,-2.93697e-37,-0.0869925,0.0268657,9.68369,0.416897,-0.341425,-4.94019,3.9209,-0.528076
818,-2.93883e-37,-0.0677021,0.00248949,9.67486,0.394715,-0.304861,7.70288,3.9209,-0.523926
819,-2.9407e-37,-0.0636963,0.0255359,9.64806,0.361711,-0.311059,5.93359,3.91016,-0.531494
820,-2.94257e-37,-0.0782521,0.0230679,9.69097,0.273509,-0.299277,-5.71313,3.91089,-0.529053
821,-2.94444e-37,-0.0703768,0.0320662,9.68481,0.377016,-0.284894,-6.146,3.92065,-0.529053
822,-2.94631e-37,-0.0513933,0.0265945,9.64947,0.282141,-0.369946,2.18384,3.89771,-0.529297
823,-2.94818e-37,-0.0820288,0.0232825,9.70224,0.361699,-0.36905,-3.97681,3.90674,-0.523926
824,-2.95004e-37,-0.0692181,0.00663784,9.65848,0.378476,-0.291785,4.88525,3.90967,-0.531006
825,-2.95191e-37,-0.0979939,0.0241838,9.64424,0.40865,-0.468267,5.91235,3.92627,-0.527344
826,-2.95378e-37,-0.0905189,0.0154999,9.68839,0.368307,-0.306167,-7.03711,3.91992,-0.527588
827,-2.95565e-37,-0.0601125,0.0418298,9.67688,0.406152,-0.348866,1.28271,3.90479,-0.527588
828,-2.95752e-37,-0.071321,0.0368157,9.66476,0.333139,-0.285394,4.40869,3.91284,-0.525146
829,-2.95939e-37,-0.0838599,0.0254284,9.67498,0.319358,-0.301684,3.24341,3.92114,-0.529297
830,-2.96125e-37,-0.0681451,0.0134259,9.65657,0.418908,-0.26918,-2.43628,3.90039,-0.525146
831,-2.96312e-37,-0.0696184,0.0332963,9.63562,0.481983,-0.385276,1.31396,3.9126,-0.533203
832,-2.96499e-37,-0.0880587,0.015071,9.68675,0.385289,-0.246486,-6.82202,3.91602,-0.529053
833,-2.96686e-37,-0.0636818,0.0215944,9.63783,0.407561,-0.33611,1.78589,3.91284,-0.526367
834,-2.96873e-37,-0.0696258,0.018204,9.66578,0.38812,-0.316233,-1.57007,3.91162,-0.531494
835,-2.9706e-37,-0.0892174,0.0214156,9.66647,0.343653,-0.254375,-7.97217,3.91309,-0.526367
836,-2.97246e-37,-0.0911344,0.0302279,9.64602,0.407228,-0.281987,-3.48608,3.90137,-0.531494
837,-2.97433e-37,-0.0660204,0.0326023,9.66695,0.396867,-0.33985,1.77832,3.91821,-0.525635
838,-2.9762e-37,-0.0724654,0.0269018,9.68403,0.4733,-0.364798,4.41626,3.90698,-0.522949
839,-2.97807e-37,-0.0718074,0.0329675,9.68194,0.430755,-0.170565,0.144775,3.92383,-0.529785
840,-2.97994e-37,-0.0695471,0.0281321,9.64542,0.400901,-0.361724,6.45093,3.91553,-0.523438
841,-2.98181e-37,-0.0813064,0.0158435,9.67401,0.463579,-0.245359,0.264404,3.91309,-0.533203
842,-2.98367e-37,-0.0683237,0.0297626,9.65456,0.247869,-0.309061,3.3938,3.92627,-0.526855
843,-2.98554e-37,-0.0670722,0.03276,9.67275,0.284292,-0.304835,-7.97778,3.91748,-0.532715
844,-2.98741e-37,-0.085734,0.0330318,9.65336,0.277825,-0.238699,-2.26318,3.91968,-0.530273
845,-2.98928e-37,-0.0748688,0.0254856,9.64962,0.384329,-0.347175,-5.55811,3.9126,-0.528564
846,-2.99115e-37,-0.0637966,0.0251568,9.64005,0.39889,-0.29783,-2.41431,3.91504,-0.530273
847,-2.99302e-37,-0.0566934,0.026816,9.66908,0.376683,-0.335201,2.3606,3.91455,-0.524658
848,-2.99488e-37,-0.0732806,0.0308714,9.65128,0.335252,-0.391155,-4.55688,3.90894,-0.529785
849,-2.99675e-37,-0.0722655,0.0283468,9.66608,0.398186,-0.157118,7.60815,3.91309,-0.522949
850,-2.99862e-37,-0.0793679,0.0309718,9.66445,0.278375,-0.262328,3.09277,3.91602,-0.526855
851,-3.00049e-37,-0.0571294,0.023368,9.66942,0.353681,-0.349199,6.86987,3.91602,-0.529785
852,-3.00236e-37,-0.0862565,0.0177179,9.66909,0.422302,-0.341297,-7.29053,3.91333,-0.525635
853,-3.00423e-37,-0.0800618,0.0113516,9.68202,0.383061,-0.203467,-6.41626,3.92676,-0.531494
854,-3.00609e-37,-0.0543258,0.0141269,9.67352,0.405806,-0.369908,-2.67822,3.91626,-0.523926
855,-3.00796e-37,-0.0574659,0.0183399,9.66984,0.403078,-0.446328,3.19312,3.91992,-0.531982
856,-3.00983e-37,-0.061493,0.0252925,9.68442,0.347598,-0.165237,7.43408,3.92554,-0.527832
857,-3.0117e-37,-0.0716214,0.0300777,9.6498,0.389375,-0.324712,-0.886719,3.9104,-0.527344
858,-3.01357e-37,-0.0773297,0.0304571,9.67942,0.401823,-0.311136,7.2915,3.91455,-0.530273
859,-3.01544e-37,-0.0758201,0.0248704,9.66682,0.419817,-0.362774,-1.37256,3.9209,-0.521729
860,-3.0173e-37,-0.0531383,0.0069953,9.64472,0.414887,-0.449632,3.41284,3.91211,-0.531494
861,-3.01917e-37,-0.0673723,0.0201637,9.62643,0.356409,-0.166569,3.08838,3.91943,-0.527588
862,-3.02104e-37,-0.0742111,0.0268091,9.6723,0.398071,-0.279272,-7.19141,3.91772,-0.526367
863,-3.02291e-37,-0.088073,0.0353994,9.67437,0.391014,-0.315183,-3.5603,3.90918,-0.526855
864,-3.02478e-37,-0.0666645,0.0269376,9.65739,0.389464,-0.331077,1.05225,3.91187,-0.527344
865,-3.02665e-37,-0.0823653,0.0389975,9.65387,0.382613,-0.239672,7.14233,3.90845,-0.530518
866,-3.02851e-37,-0.085891,0.0132969,9.67726,0.41869,-0.254926,-0.67627,3.90991,-0.523926
867,-3.03038e-37,-0.0829517,0.0320878,9.67632,0.450554,-0.354296,5.97656,3.91724,-0.529297
868,-3.03225e-37,-0.0816068,0.0176103,9.66781,0.428577,-0.335342,5.67041,3.91089,-0.528564
869,-3.03412e-37,-0.0749687,0.0309214,9.67063,0.370305,-0.378335,5.35474,3.91138,-0.526367
870,-3.03599e-37,-0.0681952,0.0229821,9.65242,0.332934,-0.301416,2.92554,3.92358,-0.530273
871,-3.03786e-37,-0.0694326,0.0467295,9.6771,0.399275,-0.278452,3.43506,3.90356,-0.529053
872,-3.03972e-37,-0.0697406,0.0465295,9.66065,0.364132,-0.274828,1.56616,3.92017,-0.529785
873,-3.04159e-37,-0.0919716,0.0280681,9.66616,0.281347,-0.297727,-0.0183105,3.92822,-0.526855
874,-3.04346e-37,-0.0730377,0.0209578,9.67858,0.458969,-0.402528,-3.51538,3.91479,-0.525879
875,-3.04533e-37,-0.0812351,0.0398487,9.66892,0.319922,-0.386596,-7.32007,3.90454,-0.525879
876,-3.0472e-37,-0.0482388,0.0191982,9.6777,0.189571,-0.36823,2.82764,3.91821,-0.526855
877,-3.04907e-37,-0.0811562,0.0115948,9.67582,0.481522,-0.249547,-0.598389,3.89868,-0.531494
878,-3.05093e-37,-0.0770722,0.0174317,9.67176,0.46518,-0.306769,-1.14868,3.91016,-0.528076
879,-3.0528e-37,-0.061786,0.0246699,9.66899,0.383612,-0.36029,6.27441,3.92993,-0.529297
880,-3.05467e-37,-0.0843821,0.0161869,9.65205,0.457765,-0.392384,-6.97974,3.91626,-0.528564
881,-3.05654e-37,-0.0623589,0.0118669,9.64403,0.402822,-0.269769,-6.36157,3.92505,-0.527588
882,-3.05841e-37,-0.0736814,0.00374094,9.68163,0.541331,-0.388107,3.27661,3.9043,-0.531006
883,-3.06028e-37,-0.0885808,0.0289905,9.68114,0.442511,-0.25928,4.19507,3.91577,-0.529785
884,-3.06214e-37,-0.0746325,0.0455848,9.68164,0.346433,-0.338595,-3.9292,3.9104,-0.531006
885,-3.06401e-37,-0.0622229,0.0358647,9.67062,0.302517,-0.390054,-0.531494,3.91943,-0.528564
886,-3.06588e-37,-0.0673087,0.0241769,9.6806,0.402797,-0.263391,5.23267,3.92407,-0.530518
887,-3.06775e-37,-0.0793751,0.00269662,9.66933,0.489091,-0.373942,-6.05981,3.90356,-0.531006
888,-3.06962e-37,-0.0713141,0.018991,9.65726,0.453423,-0.364708,-0.513916,3.90625,-0.524658
889,-3.07149e-37,-0.0748046,0.0371878,9.67496,0.391898,-0.4556,-0.680176,3.91284,-0.530273
890,-3.07335e-37,-0.0862275,0.0300491,9.6575,0.30828,-0.40386,7.70825,3.9165,-0.523438
891,-3.07522e-37,-0.0665071,0.0201853,9.68835,0.418818,-0.376709,7.7605,3.91675,-0.529785
892,-3.07709e-37,-0.0746256,0.0178893,9.65952,0.473748,-0.388389,-6.55615,3.91333,-0.529053
893,-3.07896e-37,-0.0654342,0.0405995,9.66727,0.550565,-0.361314,-4.14893,3.91772,-0.526855
894,-3.08083e-37,-0.0803193,0.0147062,9.63434,0.501911,-0.316502,-3.0437,3.91504,-0.531006
895,-3.0827e-37,-0.077594,0.0409143,9.70643,0.408803,-0.535632,0.836182,3.91675,-0.523438
896,-3.08456e-37,-0.0726872,0.0223669,9.69432,0.431997,-0.484416,7.75513,3.92114,-0.531006
897,-3.08643e-37,-0.0561427,0.0369444,9.61957,0.313864,-0.0323508,7.5979,3.9209,-0.525146
898,-3.0883e-37,-0.0701479,0.0386397,9.63296,0.332217,-0.38593,-2.82715,3.91016,-0.526367
899,-3.09017e-37,-0.0853191,0.0375095,9.69796,0.391975,-0.300007,7.05933,3.90039,-0.529297
900,-3.09204e-37,-0.0668579,0.0248133,9.70514,0.607826,-0.258537,2.88696,3.91309,-0.523926
901,-3.09391e-37,-0.068009,0.0257357,9.6685,0.470521,-0.431523,-2.3147,3.91895,-0.529297
902,-3.09577e-37,-0.0792396,0.0189767,9.65654,0.278132,-0.164725,-7.5498,3.91113,-0.526367
903,-3.09764e-37,-0.0647261,0.0322736,9.63327,0.411518,-0.229683,-6.50269,3.9126,-0.531006
904,-3.09951e-37,-0.071135,0.021623,9.65979,0.455421,-0.479844,-0.628906,3.91357,-0.527832
905,-3.10138e-37,-0.0868137,0.0269588,9.70249,0.448019,-0.393985,-3.87256,3.90723,-0.526367
906,-3.10325e-37,-0.0871431,0.0387756,9.66897,0.389157,-0.318705,-5.55249,3.9082,-0.531494
907,-3.10512e-37,-0.0883877,0.0322665,9.63635,0.401939,-0.375325,3.62061,3.91357,-0.526123
908,-3.10698e-37,-0.0790389,0.0233755,9.63826,0.404987,-0.329015,-5.09082,3.91577,-0.530273
909,-3.10885e-37,-0.0679806,-0.00133758,9.65554,0.471789,-0.26854,1.07275,3.90479,-0.524658
910,-3.11072e-37,-0.0626877,0.0266588,9.65583,0.438874,-0.339722,6.073,3.92358,-0.526367
911,-3.11259e-37,-0.0772865,0.0364938,9.67991,0.364273,-0.342129,-6.6167,3.91943,-0.525879
912,-3.11446e-37,-0.0854049,0.0272237,9.66058,0.322125,-0.305527,2.98608,3.91748,-0.525146
913,-3.11633e-37,-0.0790103,0.033182,9.66555,0.431011,-0.350851,-3.82129,3.90796,-0.532715
914,-3.11819e-37,-0.0710632,0.00890503,9.65176,0.418639,-0.341719,6.03687,3.91113,-0.523438
915,-3.12006e-37,-0.0839103,0.0237548,9.66818,0.560568,-0.380679,7.49316,3.9209,-0.528564
916,-3.12193e-37,-0.0676587,0.0410931,9.71805,0.388619,-0.375236,2.78296,3.9126,-0.530762
917,-3.1238e-37,-0.0709991,0.0342693,9.67822,0.264902,-0.222011,6.43628,3.92676,-0.529785
918,-3.12567e-37,-0.0826222,0.0271162,9.66444,0.365233,-0.417064,-7.58423,3.90576,-0.530273
919,-3.12754e-37,-0.0851114,0.023225,9.68315,0.429832,-0.372956,-7.99878,3.90186,-0.525635
920,-3.1294e-37,-0.0756055,0.0267016,9.67526,0.471699,-0.417461,-2.74097,3.92383,-0.531494
921,-3.13127e-37,-0.0638032,0.0271377,9.68029,0.425081,-0.439796,-3.25146,3.91357,-0.526855
922,-3.13314e-37,-0.0685526,0.0190692,9.64976,0.276864,-0.300557,3.76855,3.92065,-0.528076
923,-3.13501e-37,-0.0722509,0.0507709,9.6484,0.352106,-0.264057,3.88135,3.91479,-0.528076
924,-3.13688e-37,-0.0810778,0.0255502,9.67577,0.562758,-0.381729,-1.9541,3.92407,-0.524658
925,-3.13875e-37,-0.0845178,0.0226815,9.67247,0.39688,-0.365464,3.97778,3.92114,-0.531006
926,-3.14061e-37,-0.0673156,0.0297059,9.66956,0.417691,-0.353528,0.299316,3.92603,-0.522217
927,-3.14248e-37,-0.0601483,0.0222883,9.66232,0.368512,-0.225815,0.728027,3.91919,-0.529785
928,-3.14435e-37,-0.0753552,0.0155431,9.65054,0.383676,-0.253158,1.9397,3.91553,-0.528564
929,-3.14622e-37,-0.0699405,0.0171096,9.63925,0.533493,-0.390655,-6.50952,3.91748,-0.528076
930,-3.14809e-37,-0.0565144,0.015965,9.68465,0.522889,-0.266119,3.77539,3.91577,-0.528564
931,-3.14996e-37,-0.0684459,0.0300065,9.68271,0.421124,-0.382677,6.50806,3.91187,-0.526855
932,-3.15182e-37,-0.0757987,0.0285613,9.67215,0.232731,-0.225585,4.7124,3.92114,-0.533203
933,-3.15369e-37,-0.0841821,0.0190054,9.65102,0.376222,-0.371227,-3.55713,3.90674,-0.528076
934,-3.15556e-37,-0.0952973,0.0193198,9.63688,0.500131,-0.432061,-1.21387,3.91968,-0.526855
935,-3.15743e-37,-0.0877868,0.0195916,9.66963,0.492972,-0.374839,5.76538,3.91821,-0.531006
936,-3.1593e-37,-0.0709202,0.04409,9.68238,0.46308,-0.313608,6.34351,3.91748,-0.525635
937,-3.16117e-37,-0.068653,0.0463933,9.68037,0.371483,-0.283806,-6.36084,3.92456,-0.528564
938,-3.16303e-37,-0.0703053,0.0203355,9.66161,0.294346,-0.285547,-2.36206,3.91528,-0.525146
939,-3.1649e-37,-0.0806412,0.0440973,9.64258,0.458072,-0.321561,1.25391,3.91821,-0.530273
940,-3.16677e-37,-0.0853689,-0.00713869,9.66379,0.584581,-0.359598,-7.71216,3.91479,-0.530273
941,-3.16864e-37,-0.0691321,0.0359142,9.64258,0.379898,-0.431549,-5.03955,3.91699,-0.525146
942,-3.17051e-37,-0.0600198,0.0343124,9.71388,0.353899,-0.267156,7.44751,3.91577,-0.529785
943,-3.17238e-37,-0.0732809,0.0254427,9.66361,0.420714,-0.257961,4.7771,3.91211,-0.525146
944,-3.17424e-37,-0.0635244,0.0276171,9.66676,0.550501,-0.403437,-3.51343,3.91333,-0.531982
945,-3.17611e-37,-0.0830517,0.0241408,9.67341,0.484544,-0.342706,0.0944824,3.92212,-0.525146
946,-3.17798e-37,-0.0770075,0.0246558,9.675,0.388414,-0.36563,-5.46216,3.91943,-0.52417
947,-3.17985e-37,-0.0697619,0.0242127,9.66189,0.297228,-0.403232,-1.93481,3.90991,-0.528564
948,-3.18172e-37,-0.0741821,0.0237188,9.67502,0.340336,-0.180568,-5.88379,3.92041,-0.525635
949,-3.18359e-37,-0.067716,0.0313223,9.64134,0.413542,-0.402899,2.94507,3.90894,-0.533203
950,-3.18545e-37,-0.0643255,0.0415938,9.65356,0.550783,-0.34537,6.7644,3.9165,-0.525635
951,-3.18732e-37,-0.0760133,0.026301,9.68615,0.389362,-0.175778,7.66577,3.90942,-0.529297
952,-3.18919e-37,-0.0768788,0.0360289,9.65086,0.259062,-0.399159,7.17236,3.92529,-0.529053
953,-3.19106e-37,-0.0520584,0.0444978,9.65114,0.478359,-0.408368,2.12207,3.90479,-0.529053
954,-3.19293e-37,-0.0812917,0.0233753,9.66467,0.459878,-0.271908,-7.3418,3.9126,-0.529785
955,-3.1948e-37,-0.0701982,0.0249564,9.65678,0.479166,-0.32872,3.77271,3.91772,-0.525146
956,-3.19666e-37,-0.0739387,0.0238331,9.68827,0.513578,-0.403296,-2.67993,3.91772,-0.532715
957,-3.19853e-37,-0.0793679,0.0311935,9.66986,0.404359,-0.241312,-5.51465,3.91919,-0.528564
958,-3.2004e-37,-0.0683883,0.0187404,9.67554,0.388773,-0.349711,0.716309,3.89673,-0.529785
959,-3.20227e-37,-0.0931012,0.0118879,9.65324,0.457048,-0.372226,4.45312,3.91895,-0.531494
960,-3.20414e-37,-0.0946965,0.016144,9.68436,0.381281,-0.301684,7.27612,3.92627,-0.523438
961,-3.206e-37,-0.0753552,0.0109367,9.66175,0.416884,-0.284318,2.17993,3.90063,-0.531494
962,-3.20787e-37,-0.0677807,0.0270093,9.68265,0.448877,-0.213418,-5.1438,3.9165,-0.523926
963,-3.20974e-37,-0.0786956,0.0261579,9.67958,0.381588,-0.317565,-0.166016,3.92065,-0.529785
964,-3.21161e-37,-0.0790175,0.0293123,9.65929,0.449581,-0.274072,-0.962402,3.89648,-0.526855
965,-3.21348e-37,-0.0874937,0.0199208,9.63636,0.476783,-0.358548,0.742432,3.90845,-0.526855
966,-3.21535e-37,-0.0754627,0.0401419,9.66785,0.465257,-0.325877,2.66553,3.92188,-0.529785
967,-3.21721e-37,-0.0648551,0.00987121,9.68183,0.288058,-0.302632,7.91528,3.91895,-0.526123
968,-3.21908e-37,-0.0766358,0.0271595,9.67786,0.337929,-0.234396,-2.93677,3.91357,-0.530762
969,-3.22095e-37,-0.0753838,0.0511857,9.67292,0.341566,-0.344511,-0.0610352,3.92065,-0.523926
970,-3.22282e-37,-0.0769572,0.0303422,9.65026,0.556828,-0.368768,-7.12573,3.90771,-0.528564
971,-3.22469e-37,-0.0769861,0.0520441,9.69693,0.528422,-0.231937,-4.99536,3.9231,-0.528564
972,-3.22656e-37,-0.06165,0.0240476,9.65366,0.375748,-0.276685,7.70459,3.91943,-0.524658
973,-3.22842e-37,-0.0629951,0.021294,9.65942,0.389874,-0.295294,5.71265,3.91846,-0.532715
974,-3.23029e-37,-0.0831947,0.0222453,9.64936,0.300788,-0.410609,-1.53125,3.92163,-0.526367
975,-3.23216e-37,-0.0716786,0.0325311,9.63732,0.542458,-0.343833,2.09668,3.91577,-0.529297
976,-3.23403e-37,-0.080913,0.0213369,9.67881,0.296907,-0.407727,-3.84619,3.927,-0.527344
977,-3.2359e-37,-0.0909839,0.0434318,9.66348,0.314005,-0.290811,6.92261,3.91577,-0.527344
978,-3.23777e-37,-0.0741964,0.0274097,9.67825,0.381652,-0.282384,-4.61938,3.9165,-0.533203
979,-3.23963e-37,-0.0717935,0.0207578,9.64916,0.440923,-0.254503,5.75903,3.9231,-0.521729
980,-3.2415e-37,-0.0603056,0.0318015,9.68114,0.322291,-0.414361,7.55396,3.91431,-0.528564
981,-3.24337e-37,-0.0452635,0.0188481,9.64994,0.364542,-0.411006,-2.5144,3.91162,-0.525146
982,-3.24524e-37,-0.0816425,0.010672,9.6944,0.365989,-0.238289,4.67969,3.90625,-0.527588
983,-3.24711e-37,-0.0766573,0.0394697,9.64496,0.356742,-0.294871,2.82983,3.91675,-0.529785
984,-3.24898e-37,-0.0849254,0.0357067,9.66028,0.383189,-0.282563,2.8833,3.91602,-0.525146
985,-3.25084e-37,-0.0700692,0.0232324,9.66946,0.430076,-0.361033,-4.10254,3.92236,-0.531006
986,-3.25271e-37,-0.0742605,0.0232536,9.68807,0.376939,-0.328631,0.208984,3.91479,-0.526855
987,-3.25458e-37,-0.0574445,0.0298059,9.67779,0.314031,-0.32297,-7.02515,3.91113,-0.531006
988,-3.25645e-37,-0.0890811,0.0362003,9.69187,0.408457,-0.205529,-4.4646,3.91821,-0.528564
989,-3.25832e-37,-0.0761778,0.0324954,9.69149,0.454512,-0.363415,-0.586914,3.92163,-0.523926
990,-3.26019e-37,-0.0815925,0.0346484,9.68069,0.278504,-0.279682,6.9729,3.91748,-0.529785
991,-3.26205e-37,-0.0765712,0.0234327,9.67374,0.399877,-0.332319,4.82544,3.91528,-0.524414
992,-3.26392e-37,-0.0808131,0.0195489,9.65584,0.342911,-0.236086,-6.45142,3.91382,-0.531982
993,-3.26579e-37,-0.0695683,0.0163512,9.69775,0.24956,-0.188764,5.92358,3.91748,-0.523926
994,-3.26766e-37,-0.071943,0.0211006,9.67561,0.296562,-0.379629,7.34668,3.91284,-0.5271
995,-3.26953e-37,-0.0694326,0.0177534,9.64268,0.409367,-0.359867,-6.57178,3.92554,-0.530273
996,-3.2714e-37,-0.0707488,0.0378528,9.66191,0.344716,-0.283819,-3.05151,3.9209,-0.523926
997,-3.27326e-37,-0.0697402,0.0299704,9.64397,0.447429,-0.330334,0.419189,3.91479,-0.529297
998,-3.27513e-37,-0.0771863,0.0112729,9.65273,0.441589,-0.278311,7.1377,3.91187,-0.526123
999,-3.277e-37,-0.0838099,0.0268017,9.68349,0.452014,-0.375543,-6.98267,3.9187,-0.530273
1000,-3.27887e-37,-0.0627805,0.0213155,9.65712,0.430755,-0.282423,7.77368,3.90698,-0.528564
1001,-3.28074e-37,-0.0795182,0.00813994,9.6587,0.263903,-0.258448,-1.20825,3.91528,-0.526367
1002,-3.28261e-37,-0.0812205,0.0260149,9.67439,0.445009,-0.376094,2.0022,3.90796,-0.529785
1003,-3.28447e-37,-0.0725298,0.013011,9.66738,0.464693,-0.38251,1.40137,3.92578,-0.526123
1004,-3.28634e-37,-0.0822575,0.0271019,9.669,0.495994,-0.420317,5.40381,3.91406,-0.529785
1005,-3.28821e-37,-0.0567146,0.0275526,9.65311,0.349737,-0.159167,4.40723,3.91382,-0.524414
1006,-3.29008e-37,-0.0684742,0.0416725,9.65662,0.375569,-0.246844,2.80322,3.90552,-0.525879
1007,-3.29195e-37,-0.0757701,0.0214442,9.67282,0.469586,-0.246742,-5.51147,3.91675,-0.526855
1008,-3.29382e-37,-0.0800117,0.032009,9.68169,0.294845,-0.299341,1.72461,3.91943,-0.525146
1009,-3.29568e-37,-0.0698835,0.0235831,9.66333,0.547914,-0.375633,-0.891357,3.91382,-0.529785
1010,-3.29755e-37,-0.0743466,0.0463004,9.68993,0.387864,-0.308498,0.677002,3.91797,-0.523926
1011,-3.29942e-37,-0.059891,0.0346986,9.6495,0.331,-0.234678,-5.50439,3.91138,-0.529053
1012,-3.30129e-37,-0.0564359,0.030936,9.64224,0.383957,-0.304092,5.8645,3.92261,-0.526611
1013,-3.30316e-37,-0.069447,0.0317872,9.66859,0.385084,-0.311085,-1.73975,3.92065,-0.528564
1014,-3.30503e-37,-0.0828728,0.0283253,9.65113,0.339952,-0.338556,-2.90771,3.89966,-0.533203
1015,-3.30689e-37,-0.0672228,0.0114091,9.68071,0.435007,-0.316554,-7.13745,3.9165,-0.525635
1016,-3.30876e-37,-0.0532102,0.0381677,9.6676,0.472275,-0.322496,-4.20874,3.92334,-0.529297
1017,-3.31063e-37,-0.0841818,0.0469083,9.65402,0.396739,-0.284331,-0.150879,3.90942,-0.525146
1018,-3.3125e-37,-0.0736814,0.0148493,9.67,0.446046,-0.28355,5.7124,3.91846,-0.526367
1019,-3.31437e-37,-0.0770222,0.0155578,9.66834,0.422199,-0.371957,-7.81934,3.91675,-0.528076
1020,-3.31624e-37,-0.0846464,0.0280746,9.67727,0.382677,-0.347009,1.93188,3.92139,-0.525635
1021,-3.3181e-37,-0.0705342,0.0216087,9.6623,0.434161,-0.29806,-2.26074,3.91821,-0.529297
1022,-3.31997e-37,-0.0818498,0.0413289,9.66551,0.425299,-0.372034,-4.5769,3.92407,-0.525635
1023,-3.32184e-37,-0.049841,0.0110297,9.66564,0.434417,-0.331563,-4.14551,3.91528,-0.529785
1024,-3.32371e-37,-0.0747755,0.0131538,9.67051,0.323252,-0.376516,-7.18726,3.91479,-0.530273
1025,-3.32558e-37,-0.0631453,0.0412504,9.68128,0.487874,-0.361302,-1.47974,3.89111,-0.526367
1026,-3.32745e-37,-0.0800618,0.0343766,9.63115,0.406485,-0.212393,-1.42017,3.91675,-0.531494
1027,-3.32931e-37,-0.0635959,0.0272881,9.67117,0.26252,-0.349545,-3.03833,3.91113,-0.528564
1028,-3.33118e-37,-0.0701694,0.0490327,9.65381,0.461031,-0.282115,7.86279,3.91919,-0.532227
1029,-3.33305e-37,-0.071636,0.0113446,9.65603,0.452578,-0.376568,5.86572,3.92163,-0.525635
1030,-3.33492e-37,-0.0764278,0.0335609,9.6753,0.428372,-0.363248,-7.68726,3.9043,-0.526367
1031,-3.33679e-37,-0.0773723,0.0273668,9.65189,0.437952,-0.138163,7.5918,3.89404,-0.528076
1032,-3.33866e-37,-0.0779159,0.0465435,9.65456,0.398737,-0.331589,0.509033,3.92603,-0.520996
1033,-3.34052e-37,-0.0813207,0.0107936,9.68983,0.421405,-0.286482,3.73022,3.91016,-0.531738
1034,-3.34239e-37,-0.0834234,0.0331819,9.65203,0.529741,-0.303401,0.789551,3.9126,-0.523926
1035,-3.34426e-37,-0.073753,0.00942029,9.68046,0.460211,-0.287814,4.82471,3.91577,-0.529053
1036,-3.34613e-37,-0.0856982,0.0443977,9.69203,0.339645,-0.292169,-1.36084,3.91211,-0.526367
1037,-3.348e-37,-0.0928511,0.00964919,9.64847,0.490256,-0.281616,6.13354,3.91748,-0.527344
1038,-3.34987e-37,-0.0771288,0.0384033,9.67001,0.353079,-0.434776,2.1604,3.90723,-0.530273
1039,-3.35173e-37,-0.0772292,0.0419514,9.69008,0.444676,-0.32817,4.66528,3.91699,-0.526123
1040,-3.3536e-37,-0.0782163,0.0219878,9.68212,0.343064,-0.320485,6.07104,3.92505,-0.529053
1041,-3.35547e-37,-0.0752264,0.0244985,9.65617,0.35103,-0.433009,-3.5249,3.92163,-0.528564
1042,-3.35734e-37,-0.0655558,0.00890529,9.67132,0.347867,-0.31964,-1.61694,3.90747,-0.527344
1043,-3.35921e-37,-0.0635103,0.0418372,9.63085,0.338428,-0.3336,6.90186,3.90015,-0.529053
1044,-3.36108e-37,-0.0736813,0.0350058,9.68505,0.422981,-0.443331,6.92603,3.91333,-0.524414
1045,-3.36294e-37,-0.0801977,0.0288689,9.65825,0.420432,-0.234485,7.71069,3.91504,-0.529785
1046,-3.36481e-37,-0.0697474,0.0279676,9.6413,0.453884,-0.330731,6.8728,3.91406,-0.522705
1047,-3.36668e-37,-0.0672653,0.0287187,9.64486,0.424876,-0.456113,-3.71631,3.90796,-0.527344
1048,-3.36855e-37,-0.0694183,0.016659,9.67694,0.337468,-0.349826,-1.8501,3.92505,-0.527344
1049,-3.37042e-37,-0.0707774,0.0327314,9.65962,0.517433,-0.329899,-7.73486,3.90063,-0.528564
1050,-3.37229e-37,-0.0626158,0.0283323,9.67239,0.466845,-0.324622,-1.32007,3.92065,-0.530273
1051,-3.37415e-37,-0.0802263,0.0215444,9.68659,0.445944,-0.360533,2.19678,3.91919,-0.523926
1052,-3.37602e-37,-0.069497,0.0138837,9.67918,0.424658,-0.29888,7.22119,3.92798,-0.531006
1053,-3.37789e-37,-0.0575732,0.0265871,9.67608,0.345767,-0.23966,-0.269531,3.91968,-0.525635
1054,-3.37976e-37,-0.0729664,0.0214372,9.66068,0.503192,-0.325288,7.70142,3.92188,-0.529297
1055,-3.38163e-37,-0.085677,0.0258434,9.65013,0.385481,-0.389003,-5.31152,3.92407,-0.526855
1056,-3.3835e-37,-0.0891101,0.0386683,9.668,0.438055,-0.319909,-0.69458,3.92358,-0.525146
1057,-3.38536e-37,-0.0690318,0.0308286,9.66564,0.514129,-0.284484,6.80933,3.92212,-0.530273
1058,-3.38723e-37,-0.0723796,0.0299203,9.66592,0.454883,-0.302594,-2.04712,3.91528,-0.526367
1059,-3.3891e-37,-0.0668576,0.036737,9.65062,0.325608,-0.365067,-1.06543,3.89502,-0.528564
1060,-3.39097e-37,-0.0684026,0.00944891,9.67619,0.32735,-0.367372,-5.62817,3.92603,-0.529053
1061,-3.39284e-37,-0.060792,0.0248061,9.65476,0.391847,-0.389708,-3.20068,3.91479,-0.527588
1062,-3.39471e-37,-0.0790175,0.0261723,9.68325,0.414105,-0.344575,7.55493,3.91382,-0.529785
1063,-3.39657e-37,-0.089246,0.0116949,9.66814,0.472992,-0.314171,-7.24268,3.91699,-0.524414
1064,-3.39844e-37,-0.0790031,0.0126105,9.68048,0.332447,-0.301966,5.92261,3.91846,-0.531494
1065,-3.40031e-37,-0.0776016,0.0120386,9.66396,0.356371,-0.344806,1.67041,3.92065,-0.523926
1066,-3.40218e-37,-0.08062,0.0353067,9.64263,0.245897,-0.251288,-2.68579,3.92212,-0.528076
1067,-3.40405e-37,-0.0629522,0.0267588,9.63122,0.454883,-0.380948,-3.72852,3.91724,-0.530273
1068,-3.40592e-37,-0.0731021,0.0269519,9.67589,0.363568,-0.329911,-2.58057,3.92163,-0.525146
1069,-3.40778e-37,-0.0800186,0.0174456,9.68604,0.349045,-0.217823,6.40771,3.90845,-0.529785
1070,-3.40965e-37,-0.0754985,0.0286902,9.6852,0.436723,-0.217913,3.85718,3.90161,-0.525635
1071,-3.41152e-37,-0.079232,0.030793,9.67614,0.285419,-0.295371,7.17871,3.92041,-0.529785
1072,-3.41339e-37,-0.0903687,0.0431887,9.65218,0.453718,-0.277633,-7.78564,3.93066,-0.526855
1073,-3.41526e-37,-0.0770576,0.0243411,9.67466,0.49853,-0.209742,-7.14771,3.92432,-0.524414
1074,-3.41713e-37,-0.0859986,0.028876,9.66943,0.373046,-0.324212,-7.29834,3.91919,-0.531494
1075,-3.41899e-37,-0.0755698,0.0384608,9.67572,0.399095,-0.249931,-5.09204,3.91675,-0.528076
1076,-3.42086e-37,-0.0683597,0.0260721,9.67978,0.371355,-0.369063,5.24268,3.91675,-0.531006
1077,-3.42273e-37,-0.0670651,0.0236044,9.66155,0.545788,-0.243707,-2.77588,3.91089,-0.529785
1078,-3.4246e-37,-0.0709278,0.0136192,9.6624,0.369357,-0.344947,1.0835,3.92822,-0.525635
1079,-3.42647e-37,-0.0733381,0.0237975,9.66752,0.440898,-0.310982,-7.92871,3.92017,-0.528564
1080,-3.42834e-37,-0.0738605,0.0181898,9.65506,0.441423,-0.34884,-7.08936,3.91968,-0.525146
1081,-3.4302e-37,-0.0766638,0.0349127,9.64512,0.324801,-0.363492,7.96484,3.92114,-0.529785
1082,-3.43207e-37,-0.0749833,0.0280463,9.67672,0.471456,-0.3748,5.29419,3.91748,-0.522705
1083,-3.43394e-37,-0.0689677,0.0267016,9.67838,0.344025,-0.370625,4.12646,3.92773,-0.531006
1084,-3.43581e-37,-0.090648,0.0207719,9.64504,0.526987,-0.314453,-7.65088,3.9082,-0.528564
1085,-3.43768e-37,-0.0734525,0.00204571,9.671,0.45455,-0.324007,-5.81543,3.90845,-0.529297
1086,-3.43955e-37,-0.0742683,0.0223242,9.66074,0.33091,-0.239455,-0.478027,3.9187,-0.532715
1087,-3.44141e-37,-0.0955405,0.0105791,9.6828,0.367756,-0.431933,-2.08911,3.90723,-0.525146
1088,-3.44328e-37,-0.0844751,0.0237117,9.65765,0.416398,-0.334343,-4.56592,3.91577,-0.530273
1089,-3.44515e-37,-0.0631526,0.0274886,9.66737,0.365887,-0.422071,3.40137,3.9209,-0.524658
1090,-3.44702e-37,-0.0694326,0.0116663,9.69441,0.400517,-0.324071,0.0595703,3.90918,-0.526367
1091,-3.44889e-37,-0.068059,0.024906,9.66239,0.317975,-0.202276,7.08081,3.91504,-0.528564
1092,-3.45076e-37,-0.0573726,0.024534,9.68762,0.417896,-0.253158,-2.67285,3.91235,-0.525635
1093,-3.45262e-37,-0.0724941,0.00735312,9.65459,0.448019,-0.437402,-4.08228,3.90723,-0.532227
1094,-3.45449e-37,-0.0837884,0.0221094,9.6948,0.385725,-0.236957,-0.429443,3.92139,-0.525146
1095,-3.45636e-37,-0.0721153,0.0168953,9.67067,0.440693,-0.327401,3.04395,3.91333,-0.530273
1096,-3.45823e-37,-0.0714855,0.0246058,9.66655,0.423852,-0.38634,2.77441,3.91895,-0.530762
1097,-3.4601e-37,-0.0828442,0.0320376,9.67781,0.375722,-0.336084,-2.67993,3.91772,-0.529053
1098,-3.46197e-37,-0.0749692,0.037431,9.67346,0.423852,-0.274969,-6.32104,3.90283,-0.529297
1099,-3.46383e-37,-0.0739457,0.0207357,9.6322,0.370561,-0.380832,6.59937,3.92212,-0.524902
1100,-3.4657e-37,-0.073381,0.0251279,9.66504,0.408316,-0.314658,-1.95093,3.92163,-0.529785
1101,-3.46757e-37,-0.0719861,0.0177675,9.65627,0.374211,-0.536183,-5.11475,3.90308,-0.525635
1102,-3.46944e-37,-0.0787886,0.0256859,9.68013,0.326492,-0.393998,3.14404,3.91724,-0.527588
1103,-3.47131e-37,-0.0809201,0.0132542,9.67736,0.276608,-0.379116,-5.97729,3.91211,-0.527588
1104,-3.47318e-37,-0.0923507,0.0251784,9.6461,0.353246,-0.386186,-6.30054,3.91846,-0.525146
1105,-3.47504e-37,-0.0850831,0.0388042,9.65597,0.283383,-0.340567,-4.19897,3.91602,-0.531982
1106,-3.47691e-37,-0.0606633,0.0415437,9.65454,0.413516,-0.316105,-4.78516,3.9231,-0.523438
1107,-3.47878e-37,-0.0774295,0.0335898,9.65048,0.508865,-0.343871,5.54297,3.92749,-0.528076
1108,-3.48065e-37,-0.0610493,0.0349128,9.67346,0.406703,-0.364273,1.77612,3.92017,-0.527344
1109,-3.48252e-37,-0.0719073,0.0111797,9.65717,0.318577,-0.246486,-0.893066,3.91528,-0.528076
1110,-3.48439e-37,-0.0805126,0.0295057,9.64188,0.416078,-0.362339,-5.10864,3.89819,-0.529053
1111,-3.48625e-37,-0.0744897,0.0388399,9.66862,0.312199,-0.334189,7.03271,3.91187,-0.524414
1112,-3.48812e-37,-0.0838955,0.020049,9.67582,0.256667,-0.42494,-1.05273,3.91699,-0.532715
1113,-3.48999e-37,-0.057888,0.0428813,9.64554,0.453769,-0.26398,4.98633,3.9126,-0.530273
1114,-3.49186e-37,-0.0653339,0.036887,9.67943,0.413337,-0.428244,-7.24829,3.9209,-0.528564
1115,-3.49373e-37,-0.0816425,0.0292623,9.68085,0.426554,-0.27844,1.4646,3.91772,-0.528564
1116,-3.4956e-37,-0.0603845,0.0382036,9.68472,0.353451,-0.396829,-0.700928,3.92847,-0.525635
1117,-3.49746e-37,-0.0780375,0.029062,9.66242,0.530317,-0.289018,5.66772,3.91284,-0.529785
1118,-3.49933e-37,-0.0733453,0.0148421,9.69065,0.526526,-0.243041,-2.46289,3.91235,-0.524658
1119,-3.5012e-37,-0.0543258,0.0146276,9.66213,0.252941,-0.367833,6.6084,3.91528,-0.531982
1120,-3.50307e-37,-0.0603771,0.0406568,9.68481,0.423403,-0.324596,-0.369629,3.91626,-0.528564
1121,-3.50494e-37,-0.0672725,0.0291764,9.66207,0.396508,-0.163175,-3.62183,3.91577,-0.523926
1122,-3.50681e-37,-0.068045,0.0269161,9.64576,0.409879,-0.422264,-4.61279,3.91162,-0.527588
1123,-3.50867e-37,-0.0667003,0.0441831,9.67779,0.343128,-0.301672,-6.18994,3.91406,-0.526123
1124,-3.51054e-37,-0.0697331,0.0120525,9.6818,0.380679,-0.146424,2.31543,3.90894,-0.530273
1125,-3.51241e-37,-0.0743681,0.00631596,9.6659,0.423057,-0.355193,-4.77979,3.9187,-0.525635
1126,-3.51428e-37,-0.0509921,0.0187759,9.66944,0.428334,-0.237982,-3.53345,3.92847,-0.527344
1127,-3.51615e-37,-0.0784376,0.0204926,9.66355,0.439182,-0.264749,-2.68481,3.92114,-0.528564
1128,-3.51801e-37,-0.0643756,0.0179679,9.6832,0.515422,-0.391821,-7.52637,3.93335,-0.525146
1129,-3.51988e-37,-0.059984,0.0221382,9.68278,0.495302,-0.209986,4.44727,3.92334,-0.529297
1130,-3.52175e-37,-0.0880873,0.0301278,9.65818,0.42033,-0.193631,-2.61475,3.9082,-0.523438
1131,-3.52362e-37,-0.0761706,0.0377456,9.66262,0.469611,-0.367167,-2.46704,3.91528,-0.531494
1132,-3.52549e-37,-0.0669864,0.0201925,9.67244,0.336738,-0.267566,-2.99561,3.91821,-0.528076
1133,-3.52736e-37,-0.0805765,0.00806104,9.66481,0.385225,-0.354783,1.02637,3.90015,-0.527344
1134,-3.52922e-37,-0.0762639,0.0257504,9.64884,0.500489,-0.401708,-6.82544,3.91846,-0.528564
1135,-3.53109e-37,-0.0662568,0.0266873,9.68873,0.377246,-0.360213,-5.77783,3.91992,-0.523926
1136,-3.53296e-37,-0.0586247,0.0103359,9.63242,0.408112,-0.322675,6.80005,3.92896,-0.532715
1137,-3.53483e-37,-0.0722795,0.0144344,9.67525,0.51628,-0.329489,-7.396,3.91382,-0.528564
1138,-3.5367e-37,-0.0804409,0.0196775,9.68097,0.420867,-0.253466,1.72559,3.91846,-0.529297
1139,-3.53857e-37,-0.0741249,0.0393549,9.66843,0.429141,-0.324353,6.26709,3.90405,-0.526855
1140,-3.54043e-37,-0.0789245,0.0285184,9.68597,0.501706,-0.320921,-3.98584,3.91357,-0.525146
1141,-3.5423e-37,-0.0794828,0.0302282,9.70068,0.392205,-0.261252,-3.15918,3.92334,-0.529297
1142,-3.54417e-37,-0.0879227,0.0154001,9.65434,0.386647,-0.347944,1.98071,3.92407,-0.524658
1143,-3.54604e-37,-0.0861989,0.00660923,9.65301,0.371394,-0.353118,-6.45288,3.91479,-0.530273
1144,-3.54791e-37,-0.0601483,0.0112228,9.68074,0.421021,-0.308984,4.49609,3.92603,-0.527344
1145,-3.54978e-37,-0.0728521,0.0378889,9.64679,0.402425,-0.303004,-4.56543,3.91528,-0.526855
1146,-3.55164e-37,-0.0708708,0.0226103,9.65871,0.383471,-0.162535,2.76807,3.92334,-0.528076
1147,-3.55351e-37,-0.0877865,0.0322948,9.67196,0.395381,-0.300135,-4.66699,3.91284,-0.526855
1148,-3.55538e-37,-0.0698904,0.0137835,9.67584,0.44296,-0.240774,-1.78149,3.9126,-0.530762
1149,-3.55725e-37,-0.0784242,0.0375312,9.65653,0.438797,-0.242772,6.02051,3.92383,-0.526855
1150,-3.55912e-37,-0.0659137,0.0350134,9.64686,0.328656,-0.363402,7.87646,3.90845,-0.526855
1151,-3.56099e-37,-0.0766213,0.0186618,9.6614,0.373456,-0.290389,2.35791,3.9165,-0.531982
1152,-3.56285e-37,-0.0592542,0.0119667,9.67743,0.47403,-0.300557,0.465088,3.91992,-0.522949
1153,-3.56472e-37,-0.0502416,0.0218019,9.65617,0.458008,-0.292028,-7.18506,3.91284,-0.530029
1154,-3.56659e-37,-0.0546974,0.0144556,9.64223,0.363389,-0.331756,-1.05762,3.92041,-0.525146
1155,-3.56846e-37,-0.0604058,0.0166447,9.6627,0.303554,-0.278247,-0.896484,3.91772,-0.531006
1156,-3.57033e-37,-0.0977364,0.0233898,9.67178,0.362134,-0.323572,-1.52075,3.91382,-0.529785
1157,-3.5722e-37,-0.077637,0.0308431,9.65371,0.335675,-0.188764,6.39478,3.91821,-0.526367
1158,-3.57406e-37,-0.065284,0.0353637,9.6693,0.272689,-0.408112,5.50928,3.91357,-0.531494
1159,-3.57593e-37,-0.0800121,0.0238193,9.67093,0.435596,-0.309894,7.5498,3.91772,-0.526123
1160,-3.5778e-37,-0.0907269,0.040707,9.68524,0.380423,-0.285983,-6.05371,3.89868,-0.531494
1161,-3.57967e-37,-0.0614217,0.0216232,9.66278,0.446968,-0.354847,3.50366,3.92285,-0.528076
1162,-3.58154e-37,-0.089947,0.0327457,9.65825,0.423019,-0.312122,-6.30298,3.92041,-0.525879
1163,-3.58341e-37,-0.0770005,-0.00753183,9.66196,0.467985,-0.465155,1.40649,3.89062,-0.528564
1164,-3.58527e-37,-0.0641896,0.0177963,9.65604,0.409546,-0.283806,1.05762,3.90796,-0.525635
1165,-3.58714e-37,-0.0699979,0.0127679,9.6494,0.551449,-0.282371,2.75684,3.90088,-0.533203
1166,-3.58901e-37,-0.0798402,0.0235401,9.65303,0.488848,-0.366898,-7.63721,3.90601,-0.524414
1167,-3.59088e-37,-0.0718642,0.0243838,9.68935,0.445969,-0.293706,-1.73584,3.91772,-0.529053
1168,-3.59275e-37,-0.0800044,0.0467508,9.67744,0.37717,-0.430396,0.882568,3.92139,-0.528564
1169,-3.59462e-37,-0.05424,0.0157863,9.66698,0.302645,-0.221768,0.945068,3.91382,-0.528564
1170,-3.59648e-37,-0.0537109,0.00962088,9.67841,0.239365,-0.306846,7.12598,3.92065,-0.533203
1171,-3.59835e-37,-0.0803479,0.0136262,9.6834,0.378604,-0.201136,-2.83105,3.91309,-0.522217
1172,-3.60022e-37,-0.0715857,0.0248919,9.65835,0.282358,-0.192978,-1.20728,3.91479,-0.529785
1173,-3.60209e-37,-0.0702981,0.0122957,9.65728,0.375044,-0.391437,-5.86523,3.90674,-0.527344
1174,-3.60396e-37,-0.0769284,0.0377738,9.66713,0.281347,-0.257999,3.51904,3.91113,-0.526855
1175,-3.60583e-37,-0.0748116,0.0225744,9.68272,0.325941,-0.290939,-6.81274,3.90918,-0.529053
1176,-3.60769e-37,-0.0683594,0.0195055,9.6624,0.34446,-0.309663,5.97119,3.92114,-0.524414
1177,-3.60956e-37,-0.0795328,0.0284758,9.6423,0.315286,-0.264544,6.2749,3.89819,-0.531982
1178,-3.61143e-37,-0.0680668,0.0147279,9.65912,0.425773,-0.24897,-4.25317,3.91724,-0.527344
1179,-3.6133e-37,-0.0914491,0.0184472,9.65844,0.429564,-0.384598,-1.30249,3.90747,-0.528076
1180,-3.61517e-37,-0.0540254,0.0177391,9.69684,0.457509,-0.29961,7.60107,3.88721,-0.530762
1181,-3.61704e-37,-0.0803479,0.0390974,9.65479,0.431536,-0.302735,-1.46729,3.91309,-0.528564
1182,-3.6189e-37,-0.067201,0.0149351,9.67954,0.468536,-0.350403,5.70581,3.92334,-0.531494
1183,-3.62077e-37,-0.0795754,0.0226745,9.63755,0.44976,-0.329796,2.87109,3.9248,-0.526123
1184,-3.62264e-37,-0.0799759,0.0210651,9.65797,0.415489,-0.409162,-5.13013,3.90625,-0.529785
1185,-3.62451e-37,-0.0722509,0.0381747,9.63629,0.337391,-0.476041,2.19824,3.91821,-0.525146
1186,-3.62638e-37,-0.0628159,0.0154498,9.65381,0.362326,-0.390361,-3.72632,3.91577,-0.523926
1187,-3.62825e-37,-0.0700335,0.0214371,9.67413,0.274969,-0.339081,-7.12573,3.90771,-0.530273
1188,-3.63011e-37,-0.0723939,0.0400488,9.66945,0.297894,-0.401708,6.13599,3.91553,-0.525635
1189,-3.63198e-37,-0.0750476,0.036036,9.68278,0.399531,-0.311776,4.02466,3.92529,-0.531494
1190,-3.63385e-37,-0.0534532,0.0378958,9.66493,0.397648,-0.312033,1.40332,3.92432,-0.527344
1191,-3.63572e-37,-0.0758845,0.040807,9.68081,0.282026,-0.329168,7.71875,3.90869,-0.528564
1192,-3.63759e-37,-0.0735598,0.0274526,9.6963,0.340644,-0.278171,4.13428,3.92188,-0.528564
1193,-3.63946e-37,-0.0692967,0.0309647,9.6628,0.423685,-0.254298,1.88696,3.91577,-0.526367
1194,-3.64132e-37,-0.0731092,0.0226602,9.66362,0.331064,-0.34934,-7.46338,3.9248,-0.531494
1195,-3.64319e-37,-0.0838953,0.0255424,9.68986,0.362211,-0.33912,-2.32007,3.92334,-0.525146
1196,-3.64506e-37,-0.0704698,0.00411288,9.64825,0.238955,-0.362557,0.447021,3.93311,-0.531006
1197,-3.64693e-37,-0.0551913,0.0195845,9.66663,0.428232,-0.264134,-0.745361,3.92236,-0.528564
1198,-3.6488e-37,-0.0771577,0.0244413,9.65662,0.281385,-0.25791,0.843262,3.91138,-0.525146
1199,-3.65067e-37,-0.0623943,0.0169165,9.65998,0.506189,-0.333177,-2.49536,3.90552,-0.529053
1200,-3.65253e-37,-0.0651626,0.0268377,9.65773,0.311879,-0.321728,7.29858,3.90918,-0.523438
1201,-3.6544e-37,-0.0871717,0.0386611,9.67118,0.314492,-0.229721,4.35205,3.91602,-0.529297
1202,-3.65627e-37,-0.0748116,0.0340976,9.66161,0.221384,-0.306756,1.00757,3.90625,-0.525635
1203,-3.65814e-37,-0.0795322,0.0350987,9.66739,0.246665,-0.295063,1.1438,3.92212,-0.529297
1204,-3.66001e-37,-0.0717212,0.0440827,9.69212,0.435801,-0.31964,-1.15137,3.91211,-0.526855
1205,-3.66188e-37,-0.0681168,0.0208651,9.64202,0.295575,-0.299968,-1.53027,3.92114,-0.528076
1206,-3.66374e-37,-0.0864206,0.0444978,9.64346,0.222716,-0.238084,-3.15186,3.91748,-0.530762
1207,-3.66561e-37,-0.0825223,0.0342335,9.65313,0.335879,-0.38981,-3.0437,3.91504,-0.526855
1208,-3.66748e-37,-0.0679949,0.0211867,9.65502,0.344921,-0.395497,6.96997,3.91943,-0.531006
1209,-3.66935e-37,-0.0774009,0.0217089,9.674,0.342437,-0.327593,-7.35376,3.92139,-0.525146
1210,-3.67122e-37,-0.0629164,0.0326456,9.65043,0.304528,-0.366348,-6.41504,3.92578,-0.526367
1211,-3.67309e-37,-0.0567862,0.020929,9.66559,0.443818,-0.474593,4.14087,3.91699,-0.528076
1212,-3.67495e-37,-0.0578519,0.0213437,9.63446,0.284677,-0.404615,-5.24731,3.91553,-0.527344
1213,-3.67682e-37,-0.0694756,0.0150424,9.6871,0.343359,-0.309663,-0.62207,3.90869,-0.530273
1214,-3.67869e-37,-0.0733667,0.0235543,9.66662,0.435519,-0.0890735,-0.756348,3.89941,-0.526123
1215,-3.68056e-37,-0.0686601,0.0292551,9.61085,0.391065,-0.468254,-3.68311,3.92236,-0.530273
1216,-3.68243e-37,-0.0780086,0.00972036,9.68447,0.3873,-0.41951,5.71875,3.91406,-0.529053
1217,-3.6843e-37,-0.065863,0.0273523,9.67531,0.346266,-0.101996,-3.53589,3.93042,-0.524658
1218,-3.68616e-37,-0.0669077,0.0265299,9.65524,0.273073,-0.379769,-7.42188,3.93335,-0.531494
1219,-3.68803e-37,-0.072351,0.0202926,9.6873,0.442332,-0.302491,4.20264,3.90991,-0.525146
1220,-3.6899e-37,-0.0691827,0.0367656,9.653,0.472122,-0.00154966,-7.65967,3.91504,-0.529785
1221,-3.69177e-37,-0.0681737,0.0142127,9.66366,0.422353,-0.435993,-1.46533,3.91162,-0.526367
1222,-3.69364e-37,-0.0964346,0.0327386,9.68626,0.441384,-0.314351,-0.157715,3.91431,-0.525879
1223,-3.69551e-37,-0.0753123,0.0234256,9.63972,0.416846,-0.243707,4.69165,3.90552,-0.529785
1224,-3.69737e-37,-0.0667003,0.0314654,9.64793,0.412568,-0.535888,7.96899,3.91772,-0.523438
1225,-3.69924e-37,-0.0859846,0.0320378,9.68407,0.370715,-0.331679,-6.18359,3.90918,-0.532715
1226,-3.70111e-37,-0.076686,0.00223196,9.67819,0.36654,-0.260125,5.44214,3.92456,-0.523926
1227,-3.70298e-37,-0.0861129,0.0251849,9.67547,0.226865,-0.407202,-0.395996,3.93579,-0.530518
1228,-3.70485e-37,-0.0798615,0.0305212,9.67295,0.308933,-0.328695,-1.74609,3.92554,-0.528076
1229,-3.70672e-37,-0.078538,0.0246628,9.66229,0.259933,-0.292374,4.56299,3.91504,-0.526855
1230,-3.70858e-37,-0.0739171,0.0203067,9.67706,0.466743,-0.295242,-6.19116,3.91504,-0.528564
1231,-3.71045e-37,-0.0686816,0.0181968,9.66775,0.275404,-0.327516,-0.936279,3.9082,-0.526123
1232,-3.71232e-37,-0.0682241,0.0185834,9.66776,0.380576,-0.379898,1.79175,3.90845,-0.532715
1233,-3.71419e-37,-0.0670651,0.0125675,9.65346,0.440065,-0.301531,5.51733,3.90723,-0.525635
1234,-3.71606e-37,-0.0774438,0.0246773,9.67725,0.454204,-0.300762,-3.82568,3.91138,-0.523438
1235,-3.71793e-37,-0.0837455,0.0362363,9.64384,0.45099,-0.342142,-2.98438,3.90991,-0.526367
1236,-3.71979e-37,-0.072959,0.0311935,9.70243,0.313032,-0.414374,-3.88818,3.91895,-0.523438
1237,-3.72166e-37,-0.0840101,0.0209006,9.67075,0.369716,-0.256155,-0.0981445,3.90918,-0.531006
1238,-3.72353e-37,-0.0723009,0.0365439,9.65986,0.287328,-0.342898,-6.77368,3.91919,-0.525146
1239,-3.7254e-37,-0.0711493,0.0359788,9.67276,0.335457,-0.347175,1.94019,3.91504,-0.530273
1240,-3.72727e-37,-0.0598407,0.014742,9.66069,0.377336,-0.341079,-0.161865,3.91772,-0.529053
1241,-3.72914e-37,-0.0717218,0.0301781,9.65309,0.456343,-0.356922,-2.23047,3.93457,-0.526367
1242,-3.731e-37,-0.0811562,0.0291908,9.67403,0.33237,-0.323085,-7.97168,3.9126,-0.529785
1243,-3.73287e-37,-0.0707778,0.0214588,9.69604,0.367641,-0.303887,3.97852,3.92065,-0.527344
1244,-3.73474e-37,-0.0711994,0.0240264,9.64632,0.534159,-0.40523,-3.21094,3.92261,-0.530273
1245,-3.73661e-37,-0.0638105,0.0208005,9.67375,0.425516,-0.227454,-1.09912,3.91235,-0.526367
1246,-3.73848e-37,-0.0583314,0.036501,9.68345,0.429538,-0.141058,2.85815,3.90332,-0.525146
1247,-3.74035e-37,-0.065892,0.0195773,9.66304,0.371253,-0.326364,1.63062,3.91113,-0.531006
1248,-3.74221e-37,-0.083581,0.0264512,9.66005,0.428987,-0.36768,7.03467,3.9104,-0.525146
1249,-3.74408e-37,-0.0764713,0.026244,9.67994,0.315503,-0.217875,-4.82178,3.91113,-0.531494
1250,-3.74595e-37,-0.0797327,0.0389544,9.66828,0.424889,-0.357677,-2.73877,3.89111,-0.524658
1251,-3.74782e-37,-0.075999,-0.00077966,9.67265,0.288365,-0.248189,-5.60913,3.91138,-0.528076
1252,-3.74969e-37,-0.0740248,0.0201782,9.67852,0.374262,-0.249867,-1.84473,3.92065,-0.530273
1253,-3.75156e-37,-0.067201,0.0346841,9.64777,0.382011,-0.378284,4.66846,3.91455,-0.526367
1254,-3.75342e-37,-0.0824508,0.0211796,9.64417,0.44474,-0.278004,-6.13208,3.90991,-0.531494
1255,-3.75529e-37,-0.0847183,-0.00285398,9.65705,0.479396,-0.271882,-0.327393,3.92383,-0.524414
1256,-3.75716e-37,-0.0810705,0.00610867,9.67282,0.368141,-0.250021,4.49219,3.89771,-0.533203
1257,-3.75903e-37,-0.0710206,0.0130825,9.64238,0.433278,-0.317514,-1.25098,3.9082,-0.528564
1258,-3.7609e-37,-0.07793,0.0230391,9.66426,0.481676,-0.371701,-1.06396,3.92529,-0.526367
1259,-3.76395e-37,-0.0842317,0.0144844,9.6837,0.492459,-0.323674,-3.93701,3.91626,-0.528564
1260,-3.76769e-37,-0.0645544,0.0304353,9.68149,0.505215,-0.290901,0.468018,3.91748,-0.528076
1261,-3.77142e-37,-0.0761492,0.0132113,9.65218,0.426336,-0.336212,0.61792,3.9231,-0.532715
1262,-3.77516e-37,-0.0779088,0.0326527,9.65656,0.3159,-0.3018,5.92529,3.9165,-0.524658
1263,-3.7789e-37,-0.0791319,0.0095562,9.68586,0.584466,-0.325775,1.60498,3.93066,-0.527588
1264,-3.78263e-37,-0.0703768,0.0242195,9.65497,0.433406,-0.331423,2.46167,3.91748,-0.528564
1265,-3.78637e-37,-0.062945,0.018905,9.65494,0.350941,-0.356614,3.04517,3.91235,-0.526367
1266,-3.79011e-37,-0.0795253,0.00990669,9.68791,0.320434,-0.321343,-2.10254,3.91748,-0.530273
1267,-3.79384e-37,-0.0628663,0.00865494,9.6521,0.316618,-0.304438,2.25757,3.91309,-0.520996
1268,-3.79758e-37,-0.0749332,0.029391,9.66803,0.335162,-0.255284,-0.202393,3.90869,-0.529053
1269,-3.80132e-37,-0.0767071,0.0211152,9.67245,0.465257,-0.25741,1.75903,3.90161,-0.527832
1270,-3.80505e-37,-0.074232,0.0402918,9.62507,0.455959,-0.303477,-5.99536,3.92578,-0.526855
1271,-3.80879e-37,-0.0679162,0.0137978,9.6615,0.485403,-0.241389,-5.08325,3.9104,-0.525879
1272,-3.81253e-37,-0.0791462,0.033647,9.66275,0.346663,-0.280437,3.49976,3.92578,-0.525146
1273,-3.81626e-37,-0.0862561,0.0292623,9.66539,0.385417,-0.296856,-5.61841,3.91821,-0.530518
1274,-3.82e-37,-0.0788243,0.00816855,9.65174,0.328221,-0.266606,7.82349,3.90869,-0.522949
1275,-3.82374e-37,-0.0862558,0.0276956,9.6546,0.389234,-0.255156,0.943359,3.91528,-0.527588
1276,-3.82747e-37,-0.0751832,0.0311218,9.67763,0.326453,-0.250277,-6.35474,3.91968,-0.528076
1277,-3.83121e-37,-0.0981802,0.0245702,9.66302,0.484352,-0.420278,5.39258,3.92236,-0.527344
1278,-3.83494e-37,-0.0705773,0.0269449,9.68329,0.40076,-0.43402,-0.67749,3.91089,-0.529785
1279,-3.83868e-37,-0.0614503,0.0360434,9.63067,0.359163,-0.376849,-2.37964,3.92847,-0.527344
1280,-3.84242e-37,-0.0880157,0.030514,9.67693,0.492357,-0.276339,-2.72192,3.90967,-0.533691
1281,-3.84615e-37,-0.0878512,0.023726,9.64988,0.376632,-0.372277,6.50806,3.91187,-0.526855
1282,-3.84989e-37,-0.0769288,0.0199779,9.67527,0.340913,-0.342206,0.111328,3.90991,-0.528076
1283,-3.85363e-37,-0.0566148,0.0223026,9.66654,0.502923,-0.35217,-4.09351,3.91553,-0.528076
1284,-3.85736e-37,-0.0610068,0.0189195,9.68185,0.442332,-0.35144,1.56201,3.9231,-0.525635
1285,-3.8611e-37,-0.0699906,0.0248347,9.67105,0.377298,-0.267733,-7.40649,3.92163,-0.529785
1286,-3.86484e-37,-0.0725796,0.0280604,9.68025,0.404756,-0.312404,-6.76392,3.91187,-0.525146
1287,-3.86857e-37,-0.0705771,0.0401418,9.6628,0.437414,-0.384867,-2.52588,3.92041,-0.529053
1288,-3.87231e-37,-0.080913,0.0160295,9.6928,0.380141,-0.356025,-6.50928,3.91748,-0.528076
1289,-3.87605e-37,-0.0902334,0.0287332,9.69993,0.377503,-0.330129,-4.08643,3.91016,-0.528076
1290,-3.87978e-37,-0.068138,0.0411503,9.67933,0.382536,-0.315926,-7.44165,3.90869,-0.530762
1291,-3.88352e-37,-0.0736099,0.0275027,9.6568,0.308626,-0.299161,0.316162,3.91333,-0.524414
1292,-3.88726e-37,-0.0950466,0.0174955,9.67179,0.347905,-0.296741,5.43994,3.92603,-0.529297
1293,-3.89099e-37,-0.0802048,0.0355782,9.64758,0.438157,-0.281129,-6.39453,3.91016,-0.527344
1294,-3.89473e-37,-0.0749976,0.0231967,9.65001,0.361647,-0.349314,-6.56689,3.92163,-0.526855
1295,-3.89847e-37,-0.0717218,0.016137,9.67428,0.394062,-0.316643,2.85645,3.93604,-0.529785
1296,-3.9022e-37,-0.0795394,0.015686,9.6289,0.404295,-0.360187,2.66406,3.92285,-0.526123
1297,-3.90594e-37,-0.0877797,0.022789,9.66027,0.394075,-0.250456,-6.56592,3.92065,-0.529297
1298,-3.90968e-37,-0.0473021,0.0224246,9.65595,0.294756,-0.362595,5.1792,3.92529,-0.524414
1299,-3.91341e-37,-0.0671938,0.0186761,9.65754,0.336161,-0.366962,6.96899,3.92041,-0.531494
1300,-3.91715e-37,-0.0710706,-0.00522158,9.67241,0.400222,-0.22739,-7.03198,3.91602,-0.530273
1301,-3.92089e-37,-0.0605134,0.0129684,9.67052,0.382779,-0.331487,6.92773,3.91187,-0.528564
1302,-3.92462e-37,-0.0641613,0.0132402,9.66345,0.36029,-0.330283,7.81714,3.91357,-0.530273
