PacketCounter,SampleTimeFine,timestamp_ms,roll_deg,pitch_deg,yaw_deg
0,5.41519e+08,541519,0.0213497,-74.0504,12.2732
1,5.41528e+08,541528,-0.0138797,-74.0496,12.3098
2,5.41536e+08,541536,-0.0192872,-74.0074,12.2952
3,5.41544e+08,541544,-0.054791,-74.0061,12.3321
4,5.41553e+08,541553,-0.0759194,-73.9824,12.3482
5,5.41561e+08,541561,-0.110331,-73.981,12.384
6,5.41569e+08,541569,-0.106061,-73.9592,12.3617
7,5.41578e+08,541578,-0.140499,-73.9575,12.3968
8,5.41586e+08,541586,-0.150081,-73.9435,12.3953
9,5.41594e+08,541594,-0.187482,-73.9419,12.4338
10,5.41603e+08,541603,-0.199497,-73.9331,12.4289
11,5.41611e+08,541611,-0.230543,-73.9312,12.4614
12,5.41619e+08,541619,-0.245791,-73.9257,12.4599
13,5.41628e+08,541628,-0.281064,-73.9248,12.4963
14,5.41636e+08,541636,-0.29323,-73.9207,12.5024
15,5.41644e+08,541644,-0.329192,-73.9197,12.5396
16,5.41653e+08,541653,-0.341425,-73.918,12.5366
17,5.41661e+08,541661,-0.374662,-73.9164,12.5716
18,5.41669e+08,541669,-0.383138,-73.9145,12.5758
19,5.41678e+08,541678,-0.420171,-73.9135,12.614
20,5.41686e+08,541686,-0.431551,-73.9126,12.6099
21,5.41694e+08,541694,-0.465564,-73.9115,12.6456
22,5.41703e+08,541703,-0.475061,-73.9101,12.6488
23,5.41711e+08,541711,-0.511456,-73.9091,12.6866
24,5.41719e+08,541719,-0.523746,-73.908,12.6927
25,5.41728e+08,541728,-0.559581,-73.9062,12.7301
26,5.41736e+08,541736,-0.576871,-73.9054,12.7456
27,5.41744e+08,541744,-0.61075,-73.9046,12.7809
28,5.41753e+08,541753,-0.623484,-73.9044,12.7903
29,5.41761e+08,541761,-0.65877,-73.9034,12.8269
30,5.41769e+08,541769,-0.672274,-73.9035,12.8413
31,5.41778e+08,541778,-0.706964,-73.9019,12.8771
32,5.41786e+08,541786,-0.719573,-73.9026,12.8867
33,5.41794e+08,541794,-0.752594,-73.9011,12.9213
34,5.41803e+08,541803,-0.762691,-73.9011,12.9314
35,5.41811e+08,541811,-0.797652,-73.8996,12.968
36,5.41819e+08,541819,-0.809122,-73.8996,12.9741
37,5.41828e+08,541828,-0.843978,-73.8981,13.0106
38,5.41836e+08,541836,-0.855352,-73.8975,13.0272
39,5.41844e+08,541844,-0.890216,-73.8964,13.0639
40,5.41853e+08,541853,-0.900465,-73.8961,13.0762
41,5.41861e+08,541861,-0.93385,-73.8953,13.1114
42,5.41869e+08,541869,-0.94676,-73.8956,13.1233
43,5.41878e+08,541878,-0.98413,-73.8951,13.1628
44,5.41886e+08,541886,-0.995884,-73.8942,13.1719
45,5.41894e+08,541894,-1.03029,-73.8929,13.2078
46,5.41903e+08,541903,-1.04259,-73.8921,13.2196
47,5.41911e+08,541911,-1.0766,-73.8899,13.255
48,5.41919e+08,541919,-1.09129,-73.8886,13.2692
49,5.41928e+08,541928,-1.12599,-73.8867,13.3055
50,5.41936e+08,541936,-1.14025,-73.886,13.3214
51,5.41944e+08,541944,-1.1735,-73.8846,13.3555
52,5.41953e+08,541953,-1.18657,-73.8845,13.37
53,5.41961e+08,541961,-1.22224,-73.8824,13.4072
54,5.41969e+08,541969,-1.23555,-73.8816,13.4208
55,5.41978e+08,541978,-1.26912,-73.8801,13.4559
56,5.41986e+08,541986,-1.28503,-73.8802,13.4682
57,5.41994e+08,541994,-1.31872,-73.8786,13.5033
58,5.42003e+08,542003,-1.33268,-73.8785,13.5135
59,5.42011e+08,542011,-1.36581,-73.877,13.5481
60,5.42019e+08,542019,-1.37995,-73.8778,13.5602
61,5.42028e+08,542028,-1.41317,-73.8759,13.5952
62,5.42036e+08,542036,-1.42711,-73.8758,13.6096
63,5.42044e+08,542044,-1.46209,-73.8738,13.6464
64,5.42053e+08,542053,-1.47803,-73.8738,13.6643
65,5.42061e+08,542061,-1.51227,-73.8719,13.6998
66,5.42069e+08,542069,-1.52657,-73.8715,13.7136
67,5.42078e+08,542078,-1.56102,-73.8707,13.7495
68,5.42086e+08,542086,-1.57721,-73.8704,13.764
69,5.42094e+08,542094,-1.61062,-73.868,13.7982
70,5.42103e+08,542103,-1.62389,-73.8686,13.8127
71,5.42111e+08,542111,-1.65811,-73.8667,13.8484
72,5.42119e+08,542119,-1.6727,-73.8664,13.8598
73,5.42128e+08,542128,-1.70701,-73.8651,13.8954
74,5.42136e+08,542136,-1.72412,-73.8639,13.9131
75,5.42144e+08,542144,-1.76093,-73.8625,13.9507
76,5.42153e+08,542153,-1.77719,-73.8628,13.967
77,5.42161e+08,542161,-1.81067,-73.8616,14.002
78,5.42169e+08,542169,-1.82533,-73.8617,14.0174
79,5.42178e+08,542178,-1.86067,-73.8596,14.0541
80,5.42186e+08,542186,-1.8733,-73.8596,14.0677
81,5.42194e+08,542194,-1.90602,-73.8586,14.1017
82,5.42203e+08,542203,-1.92366,-73.8587,14.1168
83,5.42211e+08,542211,-1.95618,-73.857,14.1495
84,5.42219e+08,542219,-1.96743,-73.8572,14.1619
85,5.42228e+08,542228,-1.99999,-73.8559,14.1961
86,5.42236e+08,542236,-2.01246,-73.8554,14.2114
87,5.42244e+08,542244,-2.04576,-73.8541,14.2456
88,5.42253e+08,542253,-2.05944,-73.854,14.2608
89,5.42261e+08,542261,-2.09248,-73.8523,14.2957
90,5.42269e+08,542269,-2.1067,-73.8522,14.3119
91,5.42278e+08,542278,-2.14088,-73.8508,14.347
92,5.42286e+08,542286,-2.15535,-73.8503,14.3588
93,5.42294e+08,542294,-2.1874,-73.8482,14.3923
94,5.42303e+08,542303,-2.20046,-73.849,14.4059
95,5.42311e+08,542311,-2.23287,-73.8471,14.4401
96,5.42319e+08,542319,-2.24817,-73.8465,14.4547
97,5.42328e+08,542328,-2.28345,-73.845,14.4921
98,5.42336e+08,542336,-2.29479,-73.8449,14.5034
99,5.42344e+08,542344,-2.32855,-73.8434,14.5383
100,5.42353e+08,542353,-2.34295,-73.8429,14.5537
101,5.42361e+08,542361,-2.37959,-73.8418,14.5908
102,5.42369e+08,542369,-2.39147,-73.8415,14.6031
103,5.42378e+08,542378,-2.42248,-73.84,14.6352
104,5.42386e+08,542386,-2.4371,-73.8401,14.652
105,5.42394e+08,542394,-2.47069,-73.8374,14.6872
106,5.42403e+08,542403,-2.48264,-73.8372,14.6983
107,5.42411e+08,542411,-2.51713,-73.8355,14.7336
108,5.42419e+08,542419,-2.52612,-73.8362,14.7426
109,5.42428e+08,542428,-2.56052,-73.8345,14.7782
110,5.42436e+08,542436,-2.57306,-73.8338,14.7894
111,5.42444e+08,542444,-2.60733,-73.8326,14.8254
112,5.42453e+08,542453,-2.62259,-73.8323,14.8429
113,5.42461e+08,542461,-2.65539,-73.8312,14.8767
114,5.42469e+08,542469,-2.66955,-73.8303,14.8908
115,5.42478e+08,542478,-2.69947,-73.8291,14.9223
116,5.42486e+08,542486,-2.71337,-73.8284,14.9373
117,5.42494e+08,542494,-2.75054,-73.8266,14.9754
118,5.42503e+08,542503,-2.75975,-73.8268,14.9848
119,5.42511e+08,542511,-2.79441,-73.8246,15.02
120,5.42519e+08,542519,-2.80793,-73.8244,15.0344
121,5.42528e+08,542528,-2.8408,-73.822,15.0684
122,5.42536e+08,542536,-2.85276,-73.8219,15.0809
123,5.42544e+08,542544,-2.88562,-73.8199,15.1147
124,5.42553e+08,542553,-2.8976,-73.8201,15.1286
125,5.42561e+08,542561,-2.93128,-73.8186,15.1637
126,5.42569e+08,542569,-2.94213,-73.8178,15.1741
127,5.42578e+08,542578,-2.9788,-73.8158,15.2117
128,5.42586e+08,542586,-2.98961,-73.8155,15.2225
129,5.42594e+08,542594,-3.0228,-73.814,15.2561
130,5.42603e+08,542603,-3.03342,-73.8141,15.2673
131,5.42611e+08,542611,-3.06404,-73.8121,15.2992
132,5.42619e+08,542619,-3.07369,-73.8117,15.3101
133,5.42628e+08,542628,-3.10917,-73.8094,15.3471
134,5.42636e+08,542636,-3.12011,-73.8091,15.359
135,5.42644e+08,542644,-3.15185,-73.8075,15.3918
136,5.42653e+08,542653,-3.1633,-73.8073,15.4043
137,5.42661e+08,542661,-3.19648,-73.8064,15.4391
138,5.42669e+08,542669,-3.20556,-73.8063,15.4481
139,5.42678e+08,542678,-3.23689,-73.8042,15.4807
140,5.42686e+08,542686,-3.2452,-73.8035,15.4897
141,5.42694e+08,542694,-3.27999,-73.8021,15.5256
142,5.42703e+08,542703,-3.28923,-73.8018,15.5359
143,5.42711e+08,542711,-3.31908,-73.7994,15.5668
144,5.42719e+08,542719,-3.32799,-73.7994,15.5767
145,5.42728e+08,542728,-3.36276,-73.7973,15.6126
146,5.42736e+08,542736,-3.37457,-73.7971,15.6248
147,5.42744e+08,542744,-3.40769,-73.796,15.6589
148,5.42753e+08,542753,-3.41661,-73.7966,15.6697
149,5.42761e+08,542761,-3.44977,-73.7946,15.7035
150,5.42769e+08,542769,-3.46031,-73.7944,15.7138
151,5.42778e+08,542778,-3.49311,-73.7926,15.7471
152,5.42786e+08,542786,-3.49957,-73.7922,15.7552
153,5.42794e+08,542794,-3.53079,-73.7909,15.7878
154,5.42803e+08,542803,-3.53966,-73.7901,15.7966
155,5.42811e+08,542811,-3.57246,-73.7885,15.8304
156,5.42819e+08,542819,-3.58012,-73.7884,15.839
157,5.42828e+08,542828,-3.61172,-73.787,15.871
158,5.42836e+08,542836,-3.62328,-73.787,15.8843
159,5.42844e+08,542844,-3.6551,-73.785,15.9166
160,5.42853e+08,542853,-3.66396,-73.7847,15.9276
161,5.42861e+08,542861,-3.69743,-73.7832,15.9613
162,5.42869e+08,542869,-3.70471,-73.7828,15.9681
163,5.42878e+08,542878,-3.73586,-73.7814,16.001
164,5.42886e+08,542886,-3.74255,-73.7817,16.0096
165,5.42894e+08,542894,-3.77542,-73.7802,16.0432
166,5.42903e+08,542903,-3.78393,-73.7796,16.0522
167,5.42911e+08,542911,-3.81634,-73.7784,16.0853
168,5.42919e+08,542919,-3.82094,-73.7787,16.0909
169,5.42928e+08,542928,-3.85634,-73.7779,16.127
170,5.42936e+08,542936,-3.86063,-73.7776,16.1331
171,5.42944e+08,542944,-3.89039,-73.7766,16.1634
172,5.42953e+08,542953,-3.89574,-73.7762,16.1712
173,5.42961e+08,542961,-3.92884,-73.7744,16.2052
174,5.42969e+08,542969,-3.93308,-73.7742,16.2095
175,5.42978e+08,542978,-3.96298,-73.7719,16.241
176,5.42986e+08,542986,-3.96352,-73.7719,16.2421
177,5.42994e+08,542994,-3.99441,-73.7707,16.2734
178,5.43003e+08,543003,-3.99658,-73.7714,16.275
179,5.43011e+08,543011,-4.02878,-73.7694,16.3083
180,5.43019e+08,543019,-4.03072,-73.7693,16.3113
181,5.43028e+08,543028,-4.06603,-73.7683,16.3486
182,5.43036e+08,543036,-4.07003,-73.7678,16.354
183,5.43044e+08,543044,-4.10126,-73.7657,16.3866
184,5.43053e+08,543053,-4.10475,-73.7653,16.3928
185,5.43061e+08,543061,-4.13756,-73.7641,16.4274
186,5.43069e+08,543069,-4.14283,-73.7641,16.4337
187,5.43078e+08,543078,-4.17341,-73.7623,16.4653
188,5.43086e+08,543086,-4.17604,-73.763,16.4687
189,5.43094e+08,543094,-4.206,-73.7619,16.5
190,5.43103e+08,543103,-4.20555,-73.7624,16.5005
191,5.43111e+08,543111,-4.23666,-73.7609,16.5321
192,5.43119e+08,543119,-4.23756,-73.7606,16.5341
193,5.43128e+08,543128,-4.26534,-73.7584,16.5628
194,5.43136e+08,543136,-4.26653,-73.7577,16.5651
195,5.43144e+08,543144,-4.29651,-73.7561,16.5976
196,5.43153e+08,543153,-4.29396,-73.7559,16.5977
197,5.43161e+08,543161,-4.32417,-73.7547,16.629
198,5.43169e+08,543169,-4.32292,-73.7544,16.6276
199,5.43178e+08,543178,-4.35213,-73.7522,16.6573
200,5.43186e+08,543186,-4.35567,-73.7525,16.6618
201,5.43194e+08,543194,-4.38689,-73.751,16.6942
202,5.43203e+08,543203,-4.38387,-73.7506,16.6909
203,5.43211e+08,543211,-4.41547,-73.7488,16.7241
204,5.43219e+08,543219,-4.41506,-73.7487,16.7246
205,5.43228e+08,543228,-4.44554,-73.7477,16.7554
206,5.43236e+08,543236,-4.44438,-73.7475,16.7556
207,5.43244e+08,543244,-4.47452,-73.7453,16.787
208,5.43253e+08,543253,-4.4723,-73.7453,16.7861
209,5.43261e+08,543261,-4.50234,-73.7434,16.8167
210,5.43269e+08,543269,-4.50051,-73.7433,16.8151
211,5.43278e+08,543278,-4.52963,-73.7425,16.8456
212,5.43286e+08,543286,-4.52979,-73.7421,16.8473
213,5.43294e+08,543294,-4.55866,-73.7399,16.8763
214,5.43303e+08,543303,-4.55771,-73.7401,16.8756
215,5.43311e+08,543311,-4.58999,-73.7384,16.9096
216,5.43319e+08,543319,-4.58849,-73.7384,16.9096
217,5.43328e+08,543328,-4.61919,-73.7367,16.9416
218,5.43336e+08,543336,-4.61578,-73.7376,16.9382
219,5.43344e+08,543344,-4.64524,-73.7353,16.968
220,5.43353e+08,543353,-4.64237,-73.7352,16.9659
221,5.43361e+08,543361,-4.67564,-73.7337,17.0005
222,5.43369e+08,543369,-4.67239,-73.7342,16.9976
223,5.43378e+08,543378,-4.70064,-73.7334,17.0266
224,5.43386e+08,543386,-4.6963,-73.7338,17.0229
225,5.43394e+08,543394,-4.72711,-73.7317,17.0553
226,5.43403e+08,543403,-4.72243,-73.732,17.0491
227,5.43411e+08,543411,-4.75032,-73.7305,17.0782
228,5.43419e+08,543419,-4.74697,-73.7305,17.0754
229,5.43428e+08,543428,-4.77613,-73.7287,17.1055
230,5.43436e+08,543436,-4.77323,-73.7291,17.1028
231,5.43444e+08,543444,-4.80399,-73.7265,17.1347
232,5.43453e+08,543453,-4.79886,-73.7274,17.1306
233,5.43461e+08,543461,-4.82741,-73.7259,17.1607
234,5.43469e+08,543469,-4.8214,-73.7266,17.1562
235,5.43478e+08,543478,-4.84912,-73.7244,17.1849
236,5.43486e+08,543486,-4.8796,-73.7229,17.2166
237,5.43494e+08,543494,0.135023,-73.9547,12.1188
238,5.43503e+08,543503,0.136649,-73.9553,12.1152
239,5.43511e+08,543511,0.133733,-73.9562,12.1176
240,5.43519e+08,543519,0.130339,-73.9568,12.1199
241,5.43528e+08,543528,0.128297,-73.9567,12.1212
242,5.43536e+08,543536,0.125565,-73.9563,12.1227
243,5.43544e+08,543544,0.126673,-73.9563,12.121
244,5.43553e+08,543553,0.125916,-73.9564,12.1211
245,5.43561e+08,543561,0.124944,-73.9561,12.1218
246,5.43569e+08,543569,0.12759,-73.9565,12.1186
247,5.43578e+08,543578,0.13072,-73.9566,12.1158
248,5.43586e+08,543586,0.129492,-73.9564,12.1159
249,5.43594e+08,543594,0.129585,-73.9568,12.1154
250,5.43603e+08,543603,0.129387,-73.9564,12.1142
251,5.43611e+08,543611,0.127628,-73.9566,12.1159
252,5.43619e+08,543619,0.128026,-73.9566,12.1147
253,5.43628e+08,543628,0.128024,-73.9568,12.1152
254,5.43636e+08,543636,0.124152,-73.9563,12.1179
255,5.43644e+08,543644,0.122918,-73.9563,12.1189
256,5.43653e+08,543653,0.120287,-73.9567,12.1207
257,5.43661e+08,543661,0.120135,-73.9568,12.12
258,5.43669e+08,543669,0.121607,-73.9573,12.1178
259,5.43678e+08,543678,0.120531,-73.9575,12.1196
260,5.43686e+08,543686,0.11978,-73.9576,12.1186
261,5.43694e+08,543694,0.12198,-73.9583,12.1164
262,5.43703e+08,543703,0.125361,-73.9588,12.1118
263,5.43711e+08,543711,0.122261,-73.9591,12.1149
264,5.43719e+08,543719,0.121259,-73.9595,12.1156
265,5.43728e+08,543728,0.11605,-73.9594,12.1207
266,5.43736e+08,543736,0.116195,-73.9596,12.1197
267,5.43744e+08,543744,0.118449,-73.9592,12.1174
268,5.43753e+08,543753,0.118346,-73.9594,12.1171
269,5.43761e+08,543761,0.118793,-73.9589,12.1163
270,5.43769e+08,543769,0.114735,-73.9586,12.1201
271,5.43778e+08,543778,0.113259,-73.9583,12.1217
272,5.43786e+08,543786,0.116274,-73.9587,12.1176
273,5.43794e+08,543794,0.120003,-73.9591,12.1139
274,5.43803e+08,543803,0.118416,-73.9595,12.1147
275,5.43811e+08,543811,0.118587,-73.9603,12.1149
276,5.43819e+08,543819,0.11817,-73.9599,12.1143
277,5.43828e+08,543828,0.118749,-73.96,12.1135
278,5.43836e+08,543836,0.119659,-73.9609,12.112
279,5.43844e+08,543844,0.116095,-73.9594,12.1142
280,5.43853e+08,543853,0.11623,-73.9593,12.1133
281,5.43861e+08,543861,0.115232,-73.9588,12.1134
282,5.43869e+08,543869,0.114281,-73.9585,12.1121
283,5.43878e+08,543878,0.113352,-73.9579,12.1128
284,5.43886e+08,543886,0.116775,-73.958,12.1077
285,5.43894e+08,543894,0.11724,-73.9579,12.1066
286,5.43903e+08,543903,0.119117,-73.958,12.1024
287,5.43911e+08,543911,0.120279,-73.958,12.1013
288,5.43919e+08,543919,0.121468,-73.9575,12.0998
289,5.43928e+08,543928,0.120283,-73.957,12.1005
290,5.43936e+08,543936,0.122019,-73.9567,12.0983
291,5.43944e+08,543944,0.125346,-73.9569,12.0956
292,5.43953e+08,543953,0.122499,-73.9573,12.0981
293,5.43961e+08,543961,0.122906,-73.9576,12.0975
294,5.43969e+08,543969,0.122657,-73.9581,12.0967
295,5.43978e+08,543978,0.121722,-73.9582,12.0975
296,5.43986e+08,543986,0.121972,-73.958,12.0964
297,5.43994e+08,543994,0.121268,-73.9584,12.0971
298,5.44003e+08,544003,0.12079,-73.9585,12.0966
299,5.44011e+08,544011,0.121116,-73.9594,12.0962
300,5.44019e+08,544019,0.120444,-73.9597,12.0964
301,5.44028e+08,544028,0.122992,-73.9595,12.0945
302,5.44036e+08,544036,0.120678,-73.959,12.0958
303,5.44044e+08,544044,0.120202,-73.9588,12.0951
304,5.44053e+08,544053,0.122965,-73.9587,12.092
305,5.44061e+08,544061,0.122264,-73.9586,12.0927
306,5.44069e+08,544069,0.123869,-73.959,12.0908
307,5.44078e+08,544078,0.128021,-73.9587,12.0862
308,5.44086e+08,544086,0.133317,-73.9584,12.0803
309,5.44094e+08,544094,0.135972,-73.9587,12.0781
310,5.44103e+08,544103,0.133508,-73.9586,12.0795
311,5.44111e+08,544111,0.132168,-73.9586,12.0804
312,5.44119e+08,544119,0.133283,-73.9585,12.0791
313,5.44128e+08,544128,0.132215,-73.9581,12.079
314,5.44136e+08,544136,0.132463,-73.9582,12.0786
315,5.44144e+08,544144,0.132153,-73.9571,12.0792
316,5.44153e+08,544153,0.130287,-73.957,12.0802
317,5.44161e+08,544161,0.130987,-73.9566,12.0796
318,5.44169e+08,544169,0.130082,-73.9561,12.0801
319,5.44178e+08,544178,0.126272,-73.9569,12.0837
320,5.44186e+08,544186,0.124071,-73.9575,12.0853
321,5.44194e+08,544194,0.125665,-73.9578,12.0837
322,5.44203e+08,544203,0.125124,-73.9585,12.0829
323,5.44211e+08,544211,0.123927,-73.9589,12.0837
324,5.44219e+08,544219,0.123727,-73.9578,12.0828
325,5.44228e+08,544228,0.121315,-73.9579,12.0848
326,5.44236e+08,544236,0.1223,-73.9579,12.0837
327,5.44244e+08,544244,0.122512,-73.9579,12.0826
328,5.44253e+08,544253,0.12358,-73.9572,12.0814
329,5.44261e+08,544261,0.12154,-73.9572,12.083
330,5.44269e+08,544269,0.120991,-73.9576,12.0832
331,5.44278e+08,544278,0.121472,-73.9574,12.0827
332,5.44286e+08,544286,0.12227,-73.9573,12.0817
333,5.44294e+08,544294,0.121978,-73.9566,12.0812
334,5.44303e+08,544303,0.120433,-73.9557,12.0811
335,5.44311e+08,544311,0.117045,-73.9554,12.0836
336,5.44319e+08,544319,0.116358,-73.9557,12.0841
337,5.44328e+08,544328,0.117685,-73.956,12.0832
338,5.44336e+08,544336,0.116487,-73.9559,12.0834
339,5.44344e+08,544344,0.115452,-73.9559,12.085
340,5.44353e+08,544353,0.111119,-73.9559,12.0886
341,5.44361e+08,544361,0.113708,-73.9562,12.0864
342,5.44369e+08,544369,0.111382,-73.9565,12.0879
343,5.44378e+08,544378,0.11152,-73.957,12.0878
344,5.44386e+08,544386,0.108243,-73.9574,12.091
345,5.44394e+08,544394,0.101917,-73.9574,12.0969
346,5.44403e+08,544403,0.0983092,-73.9577,12.0998
347,5.44411e+08,544411,0.0988569,-73.9573,12.099
348,5.44419e+08,544419,0.0976152,-73.9574,12.1005
349,5.44428e+08,544428,0.0980819,-73.9566,12.1001
350,5.44436e+08,544436,0.0972948,-73.9565,12.1006
351,5.44444e+08,544444,0.0972259,-73.9561,12.1004
352,5.44453e+08,544453,0.0980385,-73.9566,12.0978
353,5.44461e+08,544461,0.0952948,-73.957,12.1001
354,5.44469e+08,544469,0.093995,-73.9561,12.1006
355,5.44478e+08,544478,0.094869,-73.9555,12.1008
356,5.44486e+08,544486,0.0968979,-73.9552,12.0979
357,5.44494e+08,544494,0.0946085,-73.9551,12.0996
358,5.44503e+08,544503,0.092311,-73.9555,12.1007
359,5.44511e+08,544511,0.0916274,-73.9545,12.1008
360,5.44519e+08,544519,0.0914763,-73.954,12.0998
361,5.44528e+08,544528,0.0902608,-73.9532,12.1014
362,5.44536e+08,544536,0.0888311,-73.9524,12.1024
363,5.44544e+08,544544,0.0860917,-73.9523,12.1055
364,5.44553e+08,544553,0.0860636,-73.9523,12.1058
365,5.44561e+08,544561,0.0857977,-73.9513,12.1062
366,5.44569e+08,544569,0.0872732,-73.9512,12.1036
367,5.44578e+08,544578,0.0893814,-73.9516,12.1017
368,5.44586e+08,544586,0.0886937,-73.9515,12.1014
369,5.44594e+08,544594,0.086793,-73.9512,12.1032
370,5.44603e+08,544603,0.0859394,-73.9516,12.1033
371,5.44611e+08,544611,0.0863039,-73.9525,12.1033
372,5.44619e+08,544619,0.0873028,-73.9524,12.1018
373,5.44628e+08,544628,0.0893736,-73.9529,12.0998
374,5.44636e+08,544636,0.0949434,-73.9529,12.0937
375,5.44644e+08,544644,0.0918487,-73.9529,12.0968
376,5.44653e+08,544653,0.0934435,-73.9526,12.0955
377,5.44661e+08,544661,0.0936198,-73.9523,12.0952
378,5.44669e+08,544669,0.0953939,-73.9531,12.0934
379,5.44678e+08,544678,0.0977701,-73.9525,12.0903
380,5.44686e+08,544686,0.0993615,-73.9526,12.0885
381,5.44694e+08,544694,0.102314,-73.9527,12.0859
382,5.44703e+08,544703,0.0999681,-73.9528,12.087
383,5.44711e+08,544711,0.0982196,-73.9525,12.0882
384,5.44719e+08,544719,0.0995632,-73.9528,12.0868
385,5.44728e+08,544728,0.101268,-73.9523,12.0852
386,5.44736e+08,544736,0.0984847,-73.9527,12.0873
387,5.44744e+08,544744,0.0958327,-73.9524,12.0892
388,5.44753e+08,544753,0.0933473,-73.9517,12.0915
389,5.44761e+08,544761,0.0934233,-73.9517,12.0915
390,5.44769e+08,544769,0.0933965,-73.9513,12.091
391,5.44778e+08,544778,0.0917574,-73.9512,12.093
392,5.44786e+08,544786,0.0892619,-73.9506,12.0955
393,5.44794e+08,544794,0.0888399,-73.9502,12.0961
394,5.44803e+08,544803,0.0913974,-73.9509,12.0935
395,5.44811e+08,544811,0.0919398,-73.951,12.0926
396,5.44819e+08,544819,0.0932666,-73.9505,12.0912
397,5.44828e+08,544828,0.0926548,-73.9496,12.0924
398,5.44836e+08,544836,0.0924516,-73.9492,12.0917
399,5.44844e+08,544844,0.0908186,-73.9492,12.0933
400,5.44853e+08,544853,0.0920652,-73.9502,12.091
401,5.44861e+08,544861,0.0938772,-73.9503,12.0883
402,5.44869e+08,544869,0.0928513,-73.9502,12.0884
403,5.44878e+08,544878,0.0903304,-73.9503,12.0906
404,5.44886e+08,544886,0.0916981,-73.9502,12.0885
405,5.44894e+08,544894,0.0925986,-73.9498,12.0877
406,5.44903e+08,544903,0.0941085,-73.9489,12.085
407,5.44911e+08,544911,0.0952113,-73.9485,12.0828
408,5.44919e+08,544919,0.0941411,-73.9492,12.0833
409,5.44928e+08,544928,0.0958829,-73.949,12.0815
410,5.44936e+08,544936,0.0981338,-73.9488,12.0786
411,5.44944e+08,544944,0.0989248,-73.9486,12.0776
412,5.44953e+08,544953,0.0946693,-73.9482,12.0817
413,5.44961e+08,544961,0.0974233,-73.9486,12.0796
414,5.44969e+08,544969,0.0998618,-73.9487,12.0769
415,5.44978e+08,544978,0.10227,-73.9486,12.0734
416,5.44986e+08,544986,0.10278,-73.9487,12.0724
417,5.44994e+08,544994,0.103494,-73.9487,12.0718
418,5.45003e+08,545003,0.101239,-73.9489,12.0733
419,5.45011e+08,545011,0.0997893,-73.9483,12.0742
420,5.45019e+08,545019,0.098815,-73.9477,12.0748
421,5.45028e+08,545028,0.0984071,-73.9477,12.0752
422,5.45036e+08,545036,0.100559,-73.9476,12.0722
423,5.45044e+08,545044,0.0995542,-73.9475,12.0725
424,5.45053e+08,545053,0.100108,-73.9476,12.0726
425,5.45061e+08,545061,0.0993272,-73.9477,12.073
426,5.45069e+08,545069,0.100312,-73.9477,12.0718
427,5.45078e+08,545078,0.100898,-73.9475,12.0713
428,5.45086e+08,545086,0.101332,-73.947,12.0698
429,5.45094e+08,545094,0.100907,-73.9464,12.0692
430,5.45103e+08,545103,0.0992083,-73.9467,12.0704
431,5.45111e+08,545111,0.0997981,-73.9464,12.07
432,5.45119e+08,545119,0.0987864,-73.9461,12.0706
433,5.45128e+08,545128,0.0982851,-73.9459,12.0714
434,5.45136e+08,545136,0.0990585,-73.9466,12.0708
435,5.45144e+08,545144,0.0983494,-73.9457,12.0716
436,5.45153e+08,545153,0.0976881,-73.9462,12.072
437,5.45161e+08,545161,0.0997624,-73.9464,12.0692
438,5.45169e+08,545169,0.0977868,-73.9464,12.0709
439,5.45178e+08,545178,0.0982419,-73.9461,12.0704
440,5.45186e+08,545186,0.0964911,-73.9458,12.0712
441,5.45194e+08,545194,0.0994653,-73.9462,12.0688
442,5.45203e+08,545203,0.0993042,-73.9467,12.069
443,5.45211e+08,545211,0.099144,-73.9467,12.0693
444,5.45219e+08,545219,0.0976603,-73.9465,12.0704
445,5.45228e+08,545228,0.0960345,-73.9467,12.0711
446,5.45236e+08,545236,0.0961329,-73.946,12.071
447,5.45244e+08,545244,0.0966096,-73.9455,12.0705
448,5.45253e+08,545253,0.0944618,-73.9448,12.0721
449,5.45261e+08,545261,0.0934549,-73.945,12.0726
450,5.45269e+08,545269,0.0924487,-73.9448,12.0732
451,5.45278e+08,545278,0.0945729,-73.9448,12.071
452,5.45286e+08,545286,0.0949323,-73.9451,12.0701
453,5.45294e+08,545294,0.0959986,-73.9445,12.0693
454,5.45303e+08,545303,0.0982251,-73.9449,12.0661
455,5.45311e+08,545311,0.101711,-73.9445,12.0628
456,5.45319e+08,545319,0.102086,-73.9437,12.062
457,5.45328e+08,545328,0.105551,-73.943,12.0583
458,5.45336e+08,545336,0.107432,-73.9431,12.0563
459,5.45344e+08,545344,0.105108,-73.9428,12.059
460,5.45353e+08,545353,0.102854,-73.9429,12.0609
461,5.45361e+08,545361,0.102374,-73.9429,12.0614
462,5.45369e+08,545369,0.100557,-73.9424,12.0622
463,5.45378e+08,545378,0.100025,-73.9421,12.0633
464,5.45386e+08,545386,0.0996834,-73.9421,12.063
465,5.45394e+08,545394,0.0970092,-73.9421,12.065
466,5.45403e+08,545403,0.0997254,-73.9418,12.0629
467,5.45411e+08,545411,0.104058,-73.9412,12.0593
468,5.45419e+08,545419,0.100922,-73.9414,12.0607
469,5.45428e+08,545428,0.101258,-73.9418,12.0606
470,5.45436e+08,545436,0.0995183,-73.9417,12.0619
471,5.45444e+08,545444,0.103126,-73.9422,12.0566
472,5.45453e+08,545453,0.103507,-73.9416,12.0567
473,5.45461e+08,545461,0.104466,-73.9415,12.0551
474,5.45469e+08,545469,0.106278,-73.94,12.0524
475,5.45478e+08,545478,0.108136,-73.9399,12.0497
476,5.45486e+08,545486,0.141319,-73.9513,12.0425
477,5.45494e+08,545494,0.141048,-73.9515,12.043
478,5.45503e+08,545503,0.139544,-73.951,12.0439
479,5.45511e+08,545511,0.140538,-73.9507,12.0436
480,5.45519e+08,545519,0.141877,-73.9508,12.0421
481,5.45528e+08,545528,0.140046,-73.951,12.0432
482,5.45536e+08,545536,0.140667,-73.9505,12.0433
483,5.45544e+08,545544,0.141034,-73.9503,12.0432
484,5.45553e+08,545553,0.143753,-73.951,12.0403
485,5.45561e+08,545561,0.144345,-73.951,12.0402
486,5.45569e+08,545569,0.143274,-73.9506,12.0411
487,5.45578e+08,545578,0.141489,-73.95,12.0422
488,5.45586e+08,545586,0.141673,-73.95,12.0414
489,5.45594e+08,545594,0.139481,-73.95,12.0442
490,5.45603e+08,545603,0.139016,-73.9501,12.0442
491,5.45611e+08,545611,0.141145,-73.9504,12.0425
492,5.45619e+08,545619,0.140598,-73.9502,12.0426
493,5.45628e+08,545628,0.141596,-73.951,12.0417
494,5.45636e+08,545636,0.138199,-73.951,12.0455
495,5.45644e+08,545644,0.138132,-73.9508,12.0448
496,5.45653e+08,545653,0.141899,-73.9508,12.0409
497,5.45661e+08,545661,0.142985,-73.9505,12.0396
498,5.45669e+08,545669,0.143234,-73.9498,12.04
499,5.45678e+08,545678,0.144987,-73.9495,12.0382
500,5.45686e+08,545686,0.146071,-73.9504,12.0367
501,5.45694e+08,545694,0.144485,-73.9511,12.0379
502,5.45703e+08,545703,0.144249,-73.9512,12.0378
503,5.45711e+08,545711,0.143345,-73.9508,12.0376
504,5.45719e+08,545719,0.140101,-73.9512,12.04
505,5.45728e+08,545728,0.138201,-73.9509,12.0413
506,5.45736e+08,545736,0.138473,-73.9509,12.0408
507,5.45744e+08,545744,0.138221,-73.9516,12.0406
508,5.45753e+08,545753,0.138023,-73.9508,12.0404
509,5.45761e+08,545761,0.137219,-73.9508,12.0419
510,5.45769e+08,545769,0.133556,-73.9514,12.0453
511,5.45778e+08,545778,0.133732,-73.9518,12.0455
512,5.45786e+08,545786,0.134859,-73.9518,12.044
513,5.45794e+08,545794,0.135639,-73.9516,12.0436
514,5.45803e+08,545803,0.1368,-73.9515,12.0411
515,5.45811e+08,545811,0.136755,-73.9519,12.0408
516,5.45819e+08,545819,0.13779,-73.9513,12.0389
517,5.45828e+08,545828,0.13521,-73.9509,12.0416
518,5.45836e+08,545836,0.136127,-73.9513,12.0407
519,5.45844e+08,545844,0.136052,-73.9518,12.0412
520,5.45853e+08,545853,0.132918,-73.9518,12.0437
521,5.45861e+08,545861,0.133779,-73.9521,12.0431
522,5.45869e+08,545869,0.136746,-73.9522,12.04
523,5.45878e+08,545878,0.137902,-73.9517,12.0384
524,5.45886e+08,545886,0.137904,-73.9516,12.0373
525,5.45894e+08,545894,0.136514,-73.9523,12.0386
526,5.45903e+08,545903,0.135353,-73.9528,12.04
527,5.45911e+08,545911,0.137521,-73.9532,12.038
528,5.45919e+08,545919,0.140507,-73.9526,12.0351
529,5.45928e+08,545928,0.138195,-73.9521,12.0376
530,5.45936e+08,545936,0.139238,-73.952,12.0369
531,5.45944e+08,545944,0.14061,-73.9524,12.0363
532,5.45953e+08,545953,0.140176,-73.9523,12.0365
533,5.45961e+08,545961,0.141486,-73.9522,12.0351
534,5.45969e+08,545969,0.139776,-73.9518,12.0361
535,5.45978e+08,545978,0.139561,-73.9517,12.0361
536,5.45986e+08,545986,0.139258,-73.9513,12.0361
537,5.45994e+08,545994,0.135682,-73.951,12.0404
538,5.46003e+08,546003,0.137376,-73.951,12.0383
539,5.46011e+08,546011,0.137976,-73.9508,12.0376
540,5.46019e+08,546019,0.137092,-73.95,12.0376
541,5.46028e+08,546028,0.135208,-73.9507,12.0399
542,5.46036e+08,546036,0.134164,-73.9504,12.0412
543,5.46044e+08,546044,0.131829,-73.9502,12.0438
544,5.46053e+08,546053,0.131698,-73.9504,12.0441
545,5.46061e+08,546061,0.130033,-73.9496,12.046
546,5.46069e+08,546069,0.129207,-73.9502,12.0459
547,5.46078e+08,546078,0.131862,-73.9496,12.0435
548,5.46086e+08,546086,0.13051,-73.949,12.0448
549,5.46094e+08,546094,0.12882,-73.9488,12.046
550,5.46103e+08,546103,0.127558,-73.9486,12.0462
551,5.46111e+08,546111,0.126879,-73.9494,12.0475
552,5.46119e+08,546119,0.128917,-73.9495,12.0456
553,5.46128e+08,546128,0.130371,-73.9494,12.0443
554,5.46136e+08,546136,0.131545,-73.9489,12.0425
555,5.46144e+08,546144,0.131938,-73.9491,12.0423
556,5.46153e+08,546153,0.132188,-73.9489,12.0408
557,5.46161e+08,546161,0.132979,-73.9488,12.0403
558,5.46169e+08,546169,0.135064,-73.9475,12.0373
559,5.46178e+08,546178,0.133332,-73.9474,12.0385
560,5.46186e+08,546186,0.130195,-73.9474,12.0408
561,5.46194e+08,546194,0.131204,-73.9483,12.0396
562,5.46203e+08,546203,0.132154,-73.9484,12.0383
563,5.46211e+08,546211,0.131288,-73.9476,12.0382
564,5.46219e+08,546219,0.12972,-73.9477,12.0394
565,5.46228e+08,546228,0.12826,-73.9475,12.0411
566,5.46236e+08,546236,0.131039,-73.9472,12.0385
567,5.46244e+08,546244,0.129385,-73.9476,12.0407
568,5.46253e+08,546253,0.128281,-73.9474,12.0415
569,5.46261e+08,546261,0.124902,-73.9473,12.0449
570,5.46269e+08,546269,0.125825,-73.9468,12.0433
571,5.46278e+08,546278,0.123934,-73.9464,12.0445
572,5.46286e+08,546286,0.126379,-73.9456,12.042
573,5.46294e+08,546294,0.127742,-73.9454,12.0408
574,5.46303e+08,546303,0.127864,-73.9456,12.0409
575,5.46311e+08,546311,0.12747,-73.9451,12.0412
576,5.46319e+08,546319,0.128409,-73.9446,12.0402
577,5.46328e+08,546328,0.129868,-73.9441,12.038
578,5.46336e+08,546336,0.130222,-73.944,12.0375
579,5.46344e+08,546344,0.131275,-73.9442,12.0364
580,5.46353e+08,546353,0.133603,-73.9441,12.0337
581,5.46361e+08,546361,0.133599,-73.9438,12.0338
582,5.46369e+08,546369,0.134721,-73.9445,12.032
583,5.46378e+08,546378,0.134807,-73.9445,12.0324
584,5.46386e+08,546386,0.138298,-73.9446,12.0279
585,5.46394e+08,546394,0.136944,-73.9444,12.0294
586,5.46403e+08,546403,0.138742,-73.9443,12.0269
587,5.46411e+08,546411,0.135185,-73.9441,12.0306
588,5.46419e+08,546419,0.134516,-73.9444,12.0301
589,5.46428e+08,546428,0.131828,-73.9444,12.0325
590,5.46436e+08,546436,0.131241,-73.9445,12.0324
591,5.46444e+08,546444,0.133521,-73.9446,12.0304
592,5.46453e+08,546453,0.133666,-73.9439,12.0308
593,5.46461e+08,546461,0.133409,-73.944,12.0309
594,5.46469e+08,546469,0.132539,-73.9431,12.0314
595,5.46478e+08,546478,0.133298,-73.9424,12.0312
596,5.46486e+08,546486,0.13628,-73.9415,12.0282
597,5.46494e+08,546494,0.133515,-73.9413,12.0305
598,5.46503e+08,546503,0.132377,-73.9417,12.032
599,5.46511e+08,546511,0.132015,-73.9413,12.0329
600,5.46519e+08,546519,0.134239,-73.9411,12.0304
601,5.46528e+08,546528,0.133813,-73.9418,12.0304
602,5.46536e+08,546536,0.134565,-73.9425,12.0307
603,5.46544e+08,546544,0.134742,-73.942,12.0304
604,5.46553e+08,546553,0.133246,-73.9431,12.0316
605,5.46561e+08,546561,0.131516,-73.9427,12.0334
606,5.46569e+08,546569,0.134013,-73.9424,12.0306
607,5.46578e+08,546578,0.134456,-73.9416,12.031
608,5.46586e+08,546586,0.135067,-73.9411,12.0306
609,5.46594e+08,546594,0.136305,-73.9412,12.0304
610,5.46603e+08,546603,0.1377,-73.9412,12.0284
611,5.46611e+08,546611,0.138659,-73.9412,12.027
612,5.46619e+08,546619,0.135647,-73.9405,12.0303
613,5.46628e+08,546628,0.133459,-73.9406,12.0322
614,5.46636e+08,546636,0.131701,-73.9405,12.0335
615,5.46644e+08,546644,0.130308,-73.9405,12.0342
616,5.46653e+08,546653,0.130623,-73.9406,12.0337
617,5.46661e+08,546661,0.131462,-73.9405,12.0329
618,5.46669e+08,546669,0.132263,-73.9413,12.0313
619,5.46678e+08,546678,0.127505,-73.9417,12.036
620,5.46686e+08,546686,0.125306,-73.9419,12.0385
621,5.46694e+08,546694,0.126556,-73.9417,12.0376
622,5.46703e+08,546703,0.129043,-73.9417,12.0345
623,5.46711e+08,546711,0.128345,-73.9418,12.0345
624,5.46719e+08,546719,0.12999,-73.9422,12.0326
625,5.46728e+08,546728,0.130973,-73.9424,12.0322
626,5.46736e+08,546736,0.132248,-73.9421,12.0307
627,5.46744e+08,546744,0.135165,-73.9419,12.0285
628,5.46753e+08,546753,0.13226,-73.9419,12.0308
629,5.46761e+08,546761,0.132738,-73.9419,12.0311
630,5.46769e+08,546769,0.129466,-73.9424,12.0344
631,5.46778e+08,546778,0.127062,-73.9419,12.0365
632,5.46786e+08,546786,0.127921,-73.9419,12.0363
633,5.46794e+08,546794,0.129287,-73.9424,12.0355
634,5.46803e+08,546803,0.130385,-73.9419,12.0339
635,5.46811e+08,546811,0.129116,-73.9413,12.0347
636,5.46819e+08,546819,0.130369,-73.9411,12.0327
637,5.46828e+08,546828,0.128841,-73.9407,12.0343
638,5.46836e+08,546836,0.130396,-73.9409,12.0334
639,5.46844e+08,546844,0.132856,-73.941,12.031
640,5.46853e+08,546853,0.131441,-73.941,12.0324
641,5.46861e+08,546861,0.130436,-73.9408,12.0335
642,5.46869e+08,546869,0.130022,-73.9411,12.033
643,5.46878e+08,546878,0.126798,-73.9404,12.0359
644,5.46886e+08,546886,0.129006,-73.9397,12.0339
645,5.46894e+08,546894,0.129455,-73.94,12.0333
646,5.46903e+08,546903,0.131848,-73.9393,12.0311
647,5.46911e+08,546911,0.130373,-73.9389,12.0324
648,5.46919e+08,546919,0.131066,-73.9376,12.0314
649,5.46928e+08,546928,0.13096,-73.9378,12.0315
650,5.46936e+08,546936,0.130395,-73.938,12.0321
651,5.46944e+08,546944,0.129102,-73.9389,12.034
652,5.46953e+08,546953,0.126165,-73.9384,12.0364
653,5.46961e+08,546961,0.126927,-73.9385,12.0347
654,5.46969e+08,546969,0.124836,-73.939,12.0369
655,5.46978e+08,546978,0.124235,-73.9391,12.0369
656,5.46986e+08,546986,0.127373,-73.9392,12.0327
657,5.46994e+08,546994,0.129828,-73.939,12.0304
658,5.47003e+08,547003,0.130353,-73.9389,12.029
659,5.47011e+08,547011,0.133259,-73.9382,12.0257
660,5.47019e+08,547019,0.130291,-73.9383,12.0292
661,5.47028e+08,547028,0.128384,-73.9385,12.0322
662,5.47036e+08,547036,0.129864,-73.9392,12.0309
663,5.47044e+08,547044,0.128657,-73.9396,12.031
664,5.47053e+08,547053,0.129959,-73.9392,12.029
665,5.47061e+08,547061,0.130105,-73.9382,12.0287
666,5.47069e+08,547069,0.129742,-73.9377,12.0285
667,5.47078e+08,547078,0.127166,-73.9366,12.0301
668,5.47086e+08,547086,0.128724,-73.9366,12.0286
669,5.47094e+08,547094,0.130091,-73.9368,12.0274
670,5.47103e+08,547103,0.131684,-73.9365,12.0257
671,5.47111e+08,547111,0.132271,-73.9372,12.0256
672,5.47119e+08,547119,0.132908,-73.9375,12.0245
673,5.47128e+08,547128,0.1332,-73.9374,12.0249
674,5.47136e+08,547136,0.135001,-73.9379,12.0246
675,5.47144e+08,547144,0.133525,-73.9373,12.0266
676,5.47153e+08,547153,0.132971,-73.9378,12.0267
677,5.47161e+08,547161,0.135818,-73.9377,12.0241
678,5.47169e+08,547169,0.135095,-73.9375,12.0243
679,5.47178e+08,547178,0.134307,-73.938,12.0247
680,5.47186e+08,547186,0.132243,-73.9379,12.0269
681,5.47194e+08,547194,0.128865,-73.9372,12.0299
682,5.47203e+08,547203,0.130541,-73.937,12.0279
683,5.47211e+08,547211,0.129949,-73.9369,12.0282
684,5.47219e+08,547219,0.131519,-73.9368,12.0274
685,5.47228e+08,547228,0.131538,-73.9365,12.0277
686,5.47236e+08,547236,0.132645,-73.9363,12.0257
687,5.47244e+08,547244,0.132222,-73.9371,12.0259
688,5.47253e+08,547253,0.135457,-73.9373,12.0224
689,5.47261e+08,547261,0.134878,-73.937,12.0229
690,5.47269e+08,547269,0.134403,-73.937,12.0228
691,5.47278e+08,547278,0.134541,-73.9372,12.0223
692,5.47286e+08,547286,0.135358,-73.9372,12.0211
693,5.47294e+08,547294,0.139994,-73.9371,12.0166
694,5.47303e+08,547303,0.137738,-73.9374,12.0185
695,5.47311e+08,547311,0.133771,-73.9372,12.0226
696,5.47319e+08,547319,0.130584,-73.937,12.026
697,5.47328e+08,547328,0.134588,-73.9375,12.0217
698,5.47336e+08,547336,0.13213,-73.938,12.0242
699,5.47344e+08,547344,0.129718,-73.938,12.0259
700,5.47353e+08,547353,0.126218,-73.9381,12.029
701,5.47361e+08,547361,0.126387,-73.9376,12.0288
702,5.47369e+08,547369,0.130838,-73.9376,12.0236
703,5.47378e+08,547378,0.130611,-73.9373,12.0243
704,5.47386e+08,547386,0.126824,-73.938,12.0279
705,5.47394e+08,547394,0.125466,-73.9379,12.0296
706,5.47403e+08,547403,0.123681,-73.9378,12.0314
707,5.47411e+08,547411,0.126726,-73.937,12.0288
708,5.47419e+08,547419,0.128604,-73.9377,12.0262
709,5.47428e+08,547428,0.130611,-73.938,12.0243
710,5.47436e+08,547436,0.131733,-73.9378,12.0228
711,5.47444e+08,547444,0.13119,-73.9374,12.0237
712,5.47453e+08,547453,0.130791,-73.9377,12.0242
713,5.47461e+08,547461,0.133018,-73.938,12.0227
714,5.47469e+08,547469,0.130811,-73.9382,12.024
715,5.47478e+08,547478,0.129489,-73.9382,12.0249
716,5.47486e+08,547486,0.127255,-73.9384,12.0273
717,5.47494e+08,547494,0.134717,-73.9453,12.0187
718,5.47503e+08,547503,0.133378,-73.9454,12.0195
719,5.47511e+08,547511,0.130856,-73.946,12.0217
720,5.47519e+08,547519,0.128858,-73.9467,12.0239
721,5.47528e+08,547528,0.128983,-73.947,12.0239
722,5.47536e+08,547536,0.131108,-73.9467,12.0216
723,5.47544e+08,547544,0.13016,-73.9463,12.0218
724,5.47553e+08,547553,0.129094,-73.9456,12.0224
725,5.47561e+08,547561,0.12672,-73.9452,12.0247
726,5.47569e+08,547569,0.126144,-73.9455,12.025
727,5.47578e+08,547578,0.124922,-73.9457,12.0271
728,5.47586e+08,547586,0.125721,-73.9462,12.026
729,5.47594e+08,547594,0.126123,-73.947,12.0252
730,5.47603e+08,547603,0.126613,-73.9471,12.0231
731,5.47611e+08,547611,0.128283,-73.9466,12.0213
732,5.47619e+08,547619,0.131368,-73.9465,12.0174
733,5.47628e+08,547628,0.131698,-73.9458,12.0171
734,5.47636e+08,547636,0.129188,-73.9457,12.0198
735,5.47644e+08,547644,0.130869,-73.9459,12.0174
736,5.47653e+08,547653,0.130127,-73.946,12.0179
737,5.47661e+08,547661,0.128793,-73.9462,12.0197
738,5.47669e+08,547669,0.127092,-73.946,12.0214
739,5.47678e+08,547678,0.128048,-73.9454,12.0207
740,5.47686e+08,547686,0.127488,-73.9453,12.0214
741,5.47694e+08,547694,0.126877,-73.945,12.0209
742,5.47703e+08,547703,0.126572,-73.9444,12.0202
743,5.47711e+08,547711,0.127279,-73.9433,12.0194
744,5.47719e+08,547719,0.127317,-73.9426,12.0197
745,5.47728e+08,547728,0.124878,-73.942,12.0223
746,5.47736e+08,547736,0.126875,-73.9416,12.0206
747,5.47744e+08,547744,0.126267,-73.941,12.0215
748,5.47753e+08,547753,0.126991,-73.9409,12.0203
749,5.47761e+08,547761,0.127167,-73.9413,12.0203
750,5.47769e+08,547769,0.127436,-73.9415,12.0189
751,5.47778e+08,547778,0.13154,-73.9418,12.0154
752,5.47786e+08,547786,0.130692,-73.9422,12.0165
753,5.47794e+08,547794,0.134113,-73.9415,12.0134
754,5.47803e+08,547803,0.136429,-73.9411,12.0107
755,5.47811e+08,547811,0.134167,-73.9411,12.0126
756,5.47819e+08,547819,0.135994,-73.9406,12.0107
757,5.47828e+08,547828,0.138049,-73.9414,12.0085
758,5.47836e+08,547836,0.13906,-73.9407,12.007
759,5.47844e+08,547844,0.138713,-73.9407,12.0078
760,5.47853e+08,547853,0.138261,-73.941,12.0082
761,5.47861e+08,547861,0.139008,-73.941,12.0081
762,5.47869e+08,547869,0.138891,-73.9402,12.0082
763,5.47878e+08,547878,0.139065,-73.9409,12.0082
764,5.47886e+08,547886,0.140847,-73.9404,12.0061
765,5.47894e+08,547894,0.138709,-73.9406,12.0089
766,5.47903e+08,547903,0.138913,-73.9408,12.0081
767,5.47911e+08,547911,0.136954,-73.9403,12.0093
768,5.47919e+08,547919,0.139408,-73.9398,12.0068
769,5.47928e+08,547928,0.139606,-73.9394,12.0069
770,5.47936e+08,547936,0.140417,-73.9389,12.0062
771,5.47944e+08,547944,0.139024,-73.9392,12.0072
772,5.47953e+08,547953,0.140433,-73.9391,12.0053
773,5.47961e+08,547961,0.140875,-73.9389,12.0043
774,5.47969e+08,547969,0.141642,-73.9386,12.0036
775,5.47978e+08,547978,0.141273,-73.9389,12.0048
776,5.47986e+08,547986,0.141546,-73.9398,12.0043
777,5.47994e+08,547994,0.141832,-73.9394,12.0038
778,5.48003e+08,548003,0.142984,-73.9393,12.0028
779,5.48011e+08,548011,0.142884,-73.9396,12.0027
780,5.48019e+08,548019,0.14077,-73.9398,12.0046
781,5.48028e+08,548028,0.138985,-73.9402,12.0063
782,5.48036e+08,548036,0.138299,-73.9415,12.0063
783,5.48044e+08,548044,0.137859,-73.9414,12.0067
784,5.48053e+08,548053,0.13752,-73.9411,12.0073
785,5.48061e+08,548061,0.137978,-73.9407,12.0076
786,5.48069e+08,548069,0.14132,-73.9409,12.0034
787,5.48078e+08,548078,0.141211,-73.9407,12.0038
788,5.48086e+08,548086,0.1435,-73.9406,12.0016
789,5.48094e+08,548094,0.144187,-73.9403,12.0005
790,5.48103e+08,548103,0.142886,-73.9393,12.0017
791,5.48111e+08,548111,0.141894,-73.9391,12.0026
792,5.48119e+08,548119,0.140463,-73.9402,12.004
793,5.48128e+08,548128,0.141352,-73.9398,12.003
794,5.48136e+08,548136,0.144331,-73.9391,11.9999
795,5.48144e+08,548144,0.14562,-73.9386,11.9986
796,5.48153e+08,548153,0.14346,-73.9379,12.0002
797,5.48161e+08,548161,0.143364,-73.9384,12.0009
798,5.48169e+08,548169,0.142327,-73.9388,12.0014
799,5.48178e+08,548178,0.140481,-73.9378,12.0027
800,5.48186e+08,548186,0.138337,-73.9382,12.0044
801,5.48194e+08,548194,0.137712,-73.9378,12.005
802,5.48203e+08,548203,0.136206,-73.9374,12.0062
803,5.48211e+08,548211,0.134759,-73.9371,12.008
804,5.48219e+08,548219,0.135639,-73.9372,12.006
805,5.48228e+08,548228,0.136023,-73.9373,12.0058
806,5.48236e+08,548236,0.134522,-73.9375,12.0078
807,5.48244e+08,548244,0.133123,-73.9374,12.0092
808,5.48253e+08,548253,0.13423,-73.9367,12.0079
809,5.48261e+08,548261,0.134678,-73.9367,12.0068
810,5.48269e+08,548269,0.134742,-73.9371,12.0058
811,5.48278e+08,548278,0.135573,-73.9372,12.0052
812,5.48286e+08,548286,0.135417,-73.9366,12.005
813,5.48294e+08,548294,0.136635,-73.937,12.0034
814,5.48303e+08,548303,0.138126,-73.9359,12.0028
815,5.48311e+08,548311,0.139999,-73.9365,12.0016
816,5.48319e+08,548319,0.143819,-73.9364,11.9979
817,5.48328e+08,548328,0.143835,-73.9363,11.9983
818,5.48336e+08,548336,0.145196,-73.9368,11.9966
819,5.48344e+08,548344,0.146183,-73.9371,11.9952
820,5.48353e+08,548353,0.143553,-73.9372,11.9974
821,5.48361e+08,548361,0.141838,-73.9374,11.9984
822,5.48369e+08,548369,0.14027,-73.9371,12.0002
823,5.48378e+08,548378,0.140309,-73.9374,11.9998
824,5.48386e+08,548386,0.138868,-73.938,12.0008
825,5.48394e+08,548394,0.13934,-73.9377,12.0002
826,5.48403e+08,548403,0.139434,-73.9369,11.9994
827,5.48411e+08,548411,0.139047,-73.9368,11.9993
828,5.48419e+08,548419,0.135674,-73.9371,12.0024
829,5.48428e+08,548428,0.134127,-73.9366,12.0044
830,5.48436e+08,548436,0.13466,-73.9355,12.0041
831,5.48444e+08,548444,0.138427,-73.9362,12.0006
832,5.48453e+08,548453,0.139765,-73.9363,11.9988
833,5.48461e+08,548461,0.140622,-73.9355,11.9988
834,5.48469e+08,548469,0.139683,-73.935,11.9994
835,5.48478e+08,548478,0.140805,-73.9352,11.9976
836,5.48486e+08,548486,0.144525,-73.9346,11.994
837,5.48494e+08,548494,0.144991,-73.9355,11.9941
838,5.48503e+08,548503,0.142065,-73.935,11.996
839,5.48511e+08,548511,0.141264,-73.9357,11.9969
840,5.48519e+08,548519,0.140421,-73.9357,11.9969
841,5.48528e+08,548528,0.139605,-73.9361,11.998
842,5.48536e+08,548536,0.140446,-73.9367,11.9973
843,5.48544e+08,548544,0.139348,-73.9353,11.9988
844,5.48553e+08,548553,0.140462,-73.9357,11.9972
845,5.48561e+08,548561,0.13866,-73.9357,11.9989
846,5.48569e+08,548569,0.136509,-73.9349,12.0007
847,5.48578e+08,548578,0.13564,-73.9356,12.0022
848,5.48586e+08,548586,0.139957,-73.9349,11.9978
849,5.48594e+08,548594,0.141853,-73.9351,11.9961
850,5.48603e+08,548603,0.143784,-73.9348,11.9947
851,5.48611e+08,548611,0.147053,-73.935,11.9917
852,5.48619e+08,548619,0.147079,-73.935,11.992
853,5.48628e+08,548628,0.147552,-73.9353,11.9916
854,5.48636e+08,548636,0.147549,-73.9357,11.9917
855,5.48644e+08,548644,0.146214,-73.9359,11.9932
856,5.48653e+08,548653,0.150022,-73.9357,11.9896
857,5.48661e+08,548661,0.152922,-73.9357,11.9867
858,5.48669e+08,548669,0.150341,-73.9352,11.9889
859,5.48678e+08,548678,0.150885,-73.9345,11.9882
860,5.48686e+08,548686,0.151209,-73.9347,11.9871
861,5.48694e+08,548694,0.149482,-73.9352,11.989
862,5.48703e+08,548703,0.150448,-73.9352,11.9881
863,5.48711e+08,548711,0.150703,-73.9358,11.9879
864,5.48719e+08,548719,0.149964,-73.9368,11.9886
865,5.48728e+08,548728,0.1497,-73.9364,11.9883
866,5.48736e+08,548736,0.148632,-73.9364,11.9893
867,5.48744e+08,548744,0.147405,-73.9366,11.9907
868,5.48753e+08,548753,0.147384,-73.9361,11.991
869,5.48761e+08,548761,0.145594,-73.9358,11.9927
870,5.48769e+08,548769,0.147357,-73.9356,11.9904
871,5.48778e+08,548778,0.150076,-73.9358,11.9877
872,5.48786e+08,548786,0.152295,-73.9363,11.9845
873,5.48794e+08,548794,0.151348,-73.9364,11.9849
874,5.48803e+08,548803,0.152659,-73.9356,11.9834
875,5.48811e+08,548811,0.152411,-73.9364,11.984
876,5.48819e+08,548819,0.152633,-73.9366,11.9847
877,5.48828e+08,548828,0.155288,-73.9365,11.9826
878,5.48836e+08,548836,0.153884,-73.9368,11.9838
879,5.48844e+08,548844,0.154518,-73.9368,11.9838
880,5.48853e+08,548853,0.155373,-73.9366,11.9836
881,5.48861e+08,548861,0.156364,-73.9367,11.9831
882,5.48869e+08,548869,0.155106,-73.937,11.9845
883,5.48878e+08,548878,0.153635,-73.9383,11.9859
884,5.48886e+08,548886,0.154858,-73.9386,11.9846
885,5.48894e+08,548894,0.156218,-73.9385,11.9836
886,5.48903e+08,548903,0.151384,-73.9384,11.9879
887,5.48911e+08,548911,0.15218,-73.9384,11.9872
888,5.48919e+08,548919,0.153973,-73.9377,11.9859
889,5.48928e+08,548928,0.154313,-73.9374,11.9855
890,5.48936e+08,548936,0.152771,-73.9379,11.9878
891,5.48944e+08,548944,0.149968,-73.9371,11.9902
892,5.48953e+08,548953,0.149467,-73.9371,11.99
893,5.48961e+08,548961,0.148936,-73.9376,11.9899
894,5.48969e+08,548969,0.148292,-73.9379,11.9894
895,5.48978e+08,548978,0.149393,-73.9377,11.9879
896,5.48986e+08,548986,0.149139,-73.9374,11.9871
897,5.48994e+08,548994,0.151689,-73.9373,11.9842
898,5.49003e+08,549003,0.150534,-73.9377,11.9854
899,5.49011e+08,549011,0.149711,-73.9375,11.986
900,5.49019e+08,549019,0.152443,-73.938,11.9829
901,5.49028e+08,549028,0.150662,-73.9376,11.9834
902,5.49036e+08,549036,0.148756,-73.9382,11.9851
903,5.49044e+08,549044,0.151921,-73.938,11.9822
904,5.49053e+08,549053,0.152212,-73.9377,11.9819
905,5.49061e+08,549061,0.154547,-73.9376,11.9786
906,5.49069e+08,549069,0.152732,-73.9382,11.9801
907,5.49078e+08,549078,0.154305,-73.9386,11.9785
908,5.49086e+08,549086,0.154975,-73.9381,11.9775
909,5.49094e+08,549094,0.15599,-73.9376,11.9758
910,5.49103e+08,549103,0.155877,-73.9377,11.9753
911,5.49111e+08,549111,0.156409,-73.938,11.9744
912,5.49119e+08,549119,0.154547,-73.938,11.9762
913,5.49128e+08,549128,0.156671,-73.9378,11.9741
914,5.49136e+08,549136,0.154653,-73.937,11.9758
915,5.49144e+08,549144,0.155315,-73.937,11.9747
916,5.49153e+08,549153,0.153482,-73.9368,11.9754
917,5.49161e+08,549161,0.152131,-73.9364,11.9763
918,5.49169e+08,549169,0.149111,-73.9368,11.9788
919,5.49178e+08,549178,0.145801,-73.9368,11.9819
920,5.49186e+08,549186,0.14464,-73.9368,11.9824
921,5.49194e+08,549194,0.143596,-73.9371,11.9834
922,5.49203e+08,549203,0.141814,-73.9369,11.9848
923,5.49211e+08,549211,0.139811,-73.937,11.987
924,5.49219e+08,549219,0.141643,-73.9366,11.9855
925,5.49228e+08,549228,0.139471,-73.9367,11.9877
926,5.49236e+08,549236,0.135455,-73.9371,11.9915
927,5.49244e+08,549244,0.138928,-73.9371,11.9881
928,5.49253e+08,549253,0.134993,-73.9368,11.9917
929,5.49261e+08,549261,0.135827,-73.9367,11.9912
930,5.49269e+08,549269,0.132364,-73.937,11.9936
931,5.49278e+08,549278,0.132745,-73.9371,11.9933
932,5.49286e+08,549286,0.131785,-73.937,11.9939
933,5.49294e+08,549294,0.133692,-73.9372,11.9922
934,5.49303e+08,549303,0.136313,-73.937,11.9892
935,5.49311e+08,549311,0.137956,-73.9372,11.9871
936,5.49319e+08,549319,0.14014,-73.9382,11.9847
937,5.49328e+08,549328,0.140093,-73.939,11.9842
938,5.49336e+08,549336,0.142546,-73.9388,11.9814
939,5.49344e+08,549344,0.146548,-73.9386,11.9774
940,5.49352e+08,549352,0.146213,-73.9381,11.9774
941,5.49361e+08,549361,0.144188,-73.9376,11.9793
942,5.49369e+08,549369,0.148207,-73.9367,11.9745
943,5.49377e+08,549377,0.147963,-73.936,11.9749
944,5.49386e+08,549386,0.151222,-73.9357,11.9714
945,5.49394e+08,549394,0.152084,-73.936,11.9706
946,5.49402e+08,549402,0.153656,-73.9363,11.9694
947,5.49411e+08,549411,0.154317,-73.9365,11.9683
948,5.49419e+08,549419,0.155143,-73.9367,11.9681
949,5.49427e+08,549427,0.153089,-73.9366,11.9702
950,5.49436e+08,549436,0.153107,-73.937,11.9693
951,5.49444e+08,549444,0.154093,-73.9369,11.9684
952,5.49452e+08,549452,0.154156,-73.9365,11.9679
953,5.49461e+08,549461,0.15184,-73.9361,11.9702
954,5.49469e+08,549469,0.154156,-73.936,11.9674
955,5.49477e+08,549477,0.156855,-73.9357,11.9642
956,5.49486e+08,549486,0.158087,-73.9364,11.9628
957,5.49494e+08,549494,0.147125,-73.942,11.9769
958,5.49502e+08,549502,0.145733,-73.9413,11.9774
959,5.49511e+08,549511,0.148296,-73.9414,11.9749
960,5.49519e+08,549519,0.147932,-73.9423,11.9757
961,5.49527e+08,549527,0.146435,-73.9427,11.9767
962,5.49536e+08,549536,0.144557,-73.9427,11.9783
963,5.49544e+08,549544,0.145106,-73.9426,11.9789
964,5.49552e+08,549552,0.146332,-73.9429,11.9784
965,5.49561e+08,549561,0.14973,-73.943,11.9751
966,5.49569e+08,549569,0.149202,-73.943,11.9758
967,5.49577e+08,549577,0.146783,-73.9436,11.9778
968,5.49586e+08,549586,0.14969,-73.9432,11.9753
969,5.49594e+08,549594,0.14981,-73.9424,11.9753
970,5.49602e+08,549602,0.150807,-73.943,11.974
971,5.49611e+08,549611,0.148815,-73.9426,11.9761
972,5.49619e+08,549619,0.148689,-73.9425,11.9758
973,5.49627e+08,549627,0.1516,-73.9422,11.9729
974,5.49636e+08,549636,0.15181,-73.9423,11.9725
975,5.49644e+08,549644,0.151498,-73.943,11.9725
976,5.49652e+08,549652,0.15128,-73.9435,11.9719
977,5.49661e+08,549661,0.149327,-73.9436,11.9736
978,5.49669e+08,549669,0.147981,-73.9434,11.9744
979,5.49677e+08,549677,0.144034,-73.9435,11.978
980,5.49686e+08,549686,0.145846,-73.9429,11.9764
981,5.49694e+08,549694,0.145894,-73.9434,11.9767
982,5.49702e+08,549702,0.147713,-73.9445,11.9744
983,5.49711e+08,549711,0.146294,-73.9448,11.977
984,5.49719e+08,549719,0.145124,-73.9453,11.9788
985,5.49727e+08,549727,0.14714,-73.9455,11.9762
986,5.49736e+08,549736,0.147869,-73.9459,11.975
987,5.49744e+08,549744,0.147639,-73.9461,11.9752
988,5.49752e+08,549752,0.1488,-73.946,11.9735
989,5.49761e+08,549761,0.146983,-73.9454,11.9749
990,5.49769e+08,549769,0.150076,-73.9449,11.9721
991,5.49777e+08,549777,0.149011,-73.9448,11.9726
992,5.49786e+08,549786,0.147842,-73.9449,11.973
993,5.49794e+08,549794,0.148205,-73.9445,11.9732
994,5.49802e+08,549802,0.146104,-73.9442,11.9752
995,5.49811e+08,549811,0.145535,-73.9442,11.9758
996,5.49819e+08,549819,0.14437,-73.9443,11.9768
997,5.49827e+08,549827,0.144082,-73.9438,11.9768
998,5.49836e+08,549836,0.143939,-73.9436,11.977
999,5.49844e+08,549844,0.143979,-73.9436,11.9771
1000,5.49852e+08,549852,0.14399,-73.9437,11.9771
1001,5.49861e+08,549861,0.145547,-73.9434,11.9756
1002,5.49869e+08,549869,0.146712,-73.9438,11.9745
1003,5.49877e+08,549877,0.147399,-73.9443,11.9737
1004,5.49886e+08,549886,0.152168,-73.9444,11.9693
1005,5.49894e+08,549894,0.151899,-73.9443,11.9694
1006,5.49902e+08,549902,0.150177,-73.9448,11.9713
1007,5.49911e+08,549911,0.150841,-73.9448,11.9704
1008,5.49919e+08,549919,0.153888,-73.9447,11.9663
1009,5.49927e+08,549927,0.152015,-73.9451,11.9681
1010,5.49936e+08,549936,0.150732,-73.945,11.9687
1011,5.49944e+08,549944,0.151617,-73.9446,11.9678
1012,5.49952e+08,549952,0.15048,-73.9448,11.9695
1013,5.49961e+08,549961,0.149081,-73.9442,11.9716
1014,5.49969e+08,549969,0.146356,-73.9438,11.974
1015,5.49977e+08,549977,0.144344,-73.9441,11.9757
1016,5.49986e+08,549986,0.144274,-73.9446,11.9762
1017,5.49994e+08,549994,0.145057,-73.9447,11.9757
1018,5.50002e+08,550002,0.143951,-73.9455,11.9761
1019,5.50011e+08,550011,0.143264,-73.9455,11.9759
1020,5.50019e+08,550019,0.143827,-73.9457,11.9748
1021,5.50027e+08,550027,0.139937,-73.9457,11.9782
1022,5.50036e+08,550036,0.13963,-73.9457,11.9796
1023,5.50044e+08,550044,0.141039,-73.9459,11.9784
1024,5.50052e+08,550052,0.141657,-73.9458,11.9775
1025,5.50061e+08,550061,0.139032,-73.9458,11.9806
1026,5.50069e+08,550069,0.140588,-73.9456,11.979
1027,5.50077e+08,550077,0.14093,-73.9455,11.9794
1028,5.50086e+08,550086,0.140687,-73.9453,11.9802
1029,5.50094e+08,550094,0.141508,-73.9454,11.9799
1030,5.50102e+08,550102,0.141098,-73.9451,11.9796
1031,5.50111e+08,550111,0.14324,-73.9451,11.9778
1032,5.50119e+08,550119,0.143499,-73.9452,11.9782
1033,5.50127e+08,550127,0.143536,-73.9447,11.9781
1034,5.50136e+08,550136,0.142534,-73.9455,11.9798
1035,5.50144e+08,550144,0.14451,-73.9454,11.9776
1036,5.50152e+08,550152,0.144092,-73.9453,11.9779
1037,5.50161e+08,550161,0.145591,-73.9453,11.9764
1038,5.50169e+08,550169,0.143474,-73.9457,11.9781
1039,5.50177e+08,550177,0.145059,-73.9463,11.9773
1040,5.50186e+08,550186,0.14337,-73.9462,11.9788
1041,5.50194e+08,550194,0.140934,-73.9463,11.9814
1042,5.50202e+08,550202,0.143565,-73.9467,11.9788
1043,5.50211e+08,550211,0.143357,-73.9473,11.9785
1044,5.50219e+08,550219,0.141244,-73.9474,11.9809
1045,5.50227e+08,550227,0.140209,-73.9477,11.9822
1046,5.50236e+08,550236,0.143088,-73.9474,11.9802
1047,5.50244e+08,550244,0.141366,-73.9466,11.9816
1048,5.50252e+08,550252,0.135746,-73.9455,11.9871
1049,5.50261e+08,550261,0.134748,-73.9454,11.9885
1050,5.50269e+08,550269,0.134037,-73.9451,11.989
1051,5.50277e+08,550277,0.132887,-73.9441,11.9901
1052,5.50286e+08,550286,0.132499,-73.9455,11.9903
1053,5.50294e+08,550294,0.131594,-73.9455,11.992
1054,5.50302e+08,550302,0.132134,-73.9456,11.991
1055,5.50311e+08,550311,0.134647,-73.9459,11.9887
1056,5.50319e+08,550319,0.136626,-73.9465,11.9862
1057,5.50327e+08,550327,0.13421,-73.9469,11.9892
1058,5.50336e+08,550336,0.130304,-73.9469,11.9932
1059,5.50344e+08,550344,0.130635,-73.947,11.9928
1060,5.50352e+08,550352,0.130594,-73.9463,11.993
1061,5.50361e+08,550361,0.129274,-73.9467,11.9944
1062,5.50369e+08,550369,0.128749,-73.9464,11.9952
1063,5.50377e+08,550377,0.128395,-73.9463,11.9955
1064,5.50386e+08,550386,0.128715,-73.946,11.9948
1065,5.50394e+08,550394,0.129459,-73.9461,11.9938
1066,5.50402e+08,550402,0.129536,-73.9466,11.9933
1067,5.50411e+08,550411,0.130103,-73.946,11.9928
1068,5.50419e+08,550419,0.125607,-73.946,11.9971
1069,5.50427e+08,550427,0.127445,-73.9462,11.9953
1070,5.50436e+08,550436,0.126027,-73.9465,11.9966
1071,5.50444e+08,550444,0.123466,-73.9458,11.9994
1072,5.50452e+08,550452,0.125206,-73.9461,11.9975
1073,5.50461e+08,550461,0.124676,-73.9458,11.9978
1074,5.50469e+08,550469,0.12403,-73.9458,11.9978
1075,5.50477e+08,550477,0.125106,-73.9459,11.9971
1076,5.50486e+08,550486,0.126765,-73.946,11.9953
1077,5.50494e+08,550494,0.128174,-73.9464,11.9936
1078,5.50502e+08,550502,0.129236,-73.9464,11.993
1079,5.50511e+08,550511,0.128354,-73.9468,11.9944
1080,5.50519e+08,550519,0.128491,-73.9467,11.9944
1081,5.50527e+08,550527,0.128563,-73.9468,11.9946
1082,5.50536e+08,550536,0.130393,-73.9467,11.9928
1083,5.50544e+08,550544,0.130618,-73.947,11.9928
1084,5.50552e+08,550552,0.130716,-73.9475,11.9919
1085,5.50561e+08,550561,0.130196,-73.9477,11.992
1086,5.50569e+08,550569,0.129164,-73.9476,11.9936
1087,5.50577e+08,550577,0.128627,-73.9483,11.9941
1088,5.50586e+08,550586,0.127569,-73.9476,11.9963
1089,5.50594e+08,550594,0.125878,-73.9476,11.9986
1090,5.50602e+08,550602,0.125259,-73.9477,11.9988
1091,5.50611e+08,550611,0.124163,-73.9478,11.9995
1092,5.50619e+08,550619,0.123771,-73.948,12.0007
1093,5.50627e+08,550627,0.121438,-73.9484,12.0026
1094,5.50636e+08,550636,0.118365,-73.9484,12.0053
1095,5.50644e+08,550644,0.117587,-73.9496,12.0064
1096,5.50652e+08,550652,0.118922,-73.9495,12.0047
1097,5.50661e+08,550661,0.119646,-73.9502,12.0041
1098,5.50669e+08,550669,0.119067,-73.9506,12.0039
1099,5.50677e+08,550677,0.117787,-73.9504,12.005
1100,5.50686e+08,550686,0.117488,-73.9507,12.0051
1101,5.50694e+08,550694,0.118024,-73.9503,12.0046
1102,5.50702e+08,550702,0.115343,-73.9502,12.0072
1103,5.50711e+08,550711,0.114267,-73.9508,12.0087
1104,5.50719e+08,550719,0.116241,-73.9505,12.0067
1105,5.50727e+08,550727,0.116157,-73.9515,12.0077
1106,5.50736e+08,550736,0.112786,-73.9521,12.0111
1107,5.50744e+08,550744,0.113338,-73.9518,12.0107
1108,5.50752e+08,550752,0.111684,-73.9516,12.0124
1109,5.50761e+08,550761,0.110293,-73.9515,12.0144
1110,5.50769e+08,550769,0.106904,-73.9525,12.0168
1111,5.50777e+08,550777,0.107028,-73.9523,12.0158
1112,5.50786e+08,550786,0.10474,-73.9529,12.018
1113,5.50794e+08,550794,0.103044,-73.9526,12.0192
1114,5.50802e+08,550802,0.102689,-73.9528,12.0195
1115,5.50811e+08,550811,0.104381,-73.9535,12.018
1116,5.50819e+08,550819,0.101274,-73.9527,12.0218
1117,5.50827e+08,550827,0.10034,-73.9536,12.0223
1118,5.50836e+08,550836,0.0987711,-73.9533,12.0248
1119,5.50844e+08,550844,0.0983377,-73.9531,12.025
1120,5.50852e+08,550852,0.096918,-73.9523,12.0271
1121,5.50861e+08,550861,0.0945844,-73.9528,12.0302
1122,5.50869e+08,550869,0.0983407,-73.9529,12.0267
1123,5.50877e+08,550877,0.095867,-73.9532,12.0295
1124,5.50886e+08,550886,0.0941426,-73.9527,12.0308
1125,5.50894e+08,550894,0.0927715,-73.953,12.0319
1126,5.50902e+08,550902,0.0943847,-73.954,12.0301
1127,5.50911e+08,550911,0.0937225,-73.9546,12.0305
1128,5.50919e+08,550919,0.0919339,-73.9546,12.0322
1129,5.50927e+08,550927,0.0904211,-73.9544,12.034
1130,5.50936e+08,550936,0.0922821,-73.9547,12.0325
1131,5.50944e+08,550944,0.0929554,-73.9544,12.0312
1132,5.50952e+08,550952,0.0935821,-73.9544,12.0303
1133,5.50961e+08,550961,0.0965024,-73.9541,12.0272
1134,5.50969e+08,550969,0.0985642,-73.9538,12.0254
1135,5.50977e+08,550977,0.0965043,-73.9536,12.0278
1136,5.50986e+08,550986,0.0965254,-73.9539,12.0279
1137,5.50994e+08,550994,0.0958731,-73.9545,12.029
1138,5.51002e+08,551002,0.100411,-73.9546,12.0238
1139,5.51011e+08,551011,0.0988609,-73.9546,12.0254
1140,5.51019e+08,551019,0.10005,-73.9545,12.0232
1141,5.51027e+08,551027,0.101026,-73.9553,12.0221
1142,5.51036e+08,551036,0.101827,-73.9556,12.0219
1143,5.51044e+08,551044,0.10055,-73.9563,12.0233
1144,5.51052e+08,551052,0.100932,-73.9568,12.023
1145,5.51061e+08,551061,0.100577,-73.9576,12.0231
1146,5.51069e+08,551069,0.0997234,-73.9576,12.023
1147,5.51077e+08,551077,0.100542,-73.9575,12.0222
1148,5.51086e+08,551086,0.10105,-73.9577,12.0213
1149,5.51094e+08,551094,0.102318,-73.9577,12.0204
1150,5.51102e+08,551102,0.102755,-73.9572,12.0196
1151,5.51111e+08,551111,0.102767,-73.958,12.0194
1152,5.51119e+08,551119,0.10239,-73.9583,12.0196
1153,5.51127e+08,551127,0.10404,-73.9576,12.0182
1154,5.51136e+08,551136,0.102724,-73.9577,12.0191
1155,5.51144e+08,551144,0.104203,-73.9585,12.0182
1156,5.51152e+08,551152,0.105874,-73.9584,12.0162
1157,5.51161e+08,551161,0.10512,-73.9582,12.0174
1158,5.51169e+08,551169,0.106744,-73.9574,12.0151
1159,5.51177e+08,551177,0.105903,-73.9577,12.0163
1160,5.51186e+08,551186,0.104329,-73.9578,12.0176
1161,5.51194e+08,551194,0.105958,-73.9571,12.0155
1162,5.51202e+08,551202,0.11152,-73.9572,12.01
1163,5.51211e+08,551211,0.111017,-73.9575,12.0103
1164,5.51219e+08,551219,0.109876,-73.9579,12.0113
1165,5.51227e+08,551227,0.111552,-73.9577,12.01
1166,5.51236e+08,551236,0.111117,-73.9577,12.0111
1167,5.51244e+08,551244,0.112174,-73.9572,12.0089
1168,5.51252e+08,551252,0.110745,-73.9569,12.0104
1169,5.51261e+08,551261,0.112179,-73.9569,12.0096
1170,5.51269e+08,551269,0.111759,-73.957,12.0096
1171,5.51277e+08,551277,0.109698,-73.957,12.0115
1172,5.51286e+08,551286,0.109629,-73.9574,12.0112
1173,5.51294e+08,551294,0.109524,-73.9571,12.0111
1174,5.51302e+08,551302,0.106689,-73.9569,12.0134
1175,5.51311e+08,551311,0.107202,-73.957,12.0117
1176,5.51319e+08,551319,0.108929,-73.9579,12.0103
1177,5.51327e+08,551327,0.107192,-73.958,12.012
1178,5.51336e+08,551336,0.105249,-73.9582,12.014
1179,5.51344e+08,551344,0.102605,-73.9581,12.0167
1180,5.51352e+08,551352,0.104564,-73.9584,12.0148
1181,5.51361e+08,551361,0.10678,-73.9588,12.0129
1182,5.51369e+08,551369,0.104519,-73.9588,12.0153
1183,5.51377e+08,551377,0.101357,-73.9595,12.018
1184,5.51386e+08,551386,0.100947,-73.9589,12.0177
1185,5.51394e+08,551394,0.099167,-73.9593,12.0185
1186,5.51402e+08,551402,0.0972874,-73.9586,12.0202
1187,5.51411e+08,551411,0.0986338,-73.9585,12.0188
1188,5.51419e+08,551419,0.099303,-73.9598,12.0185
1189,5.51427e+08,551427,0.0989175,-73.961,12.0189
1190,5.51436e+08,551436,0.100022,-73.9607,12.0191
1191,5.51444e+08,551444,0.102923,-73.9608,12.0157
1192,5.51452e+08,551452,0.100412,-73.9601,12.0174
1193,5.51461e+08,551461,0.10176,-73.9601,12.0164
1194,5.51469e+08,551469,0.102431,-73.9599,12.0161
1195,5.51477e+08,551477,0.102505,-73.9592,12.0154
1196,5.51486e+08,551486,0.100229,-73.9587,12.0178
1197,5.51494e+08,551494,0.130694,-73.9437,11.9843
1198,5.51502e+08,551502,0.130796,-73.9442,11.9844
1199,5.51511e+08,551511,0.131151,-73.9444,11.9843
1200,5.51519e+08,551519,0.134052,-73.9443,11.9812
1201,5.51527e+08,551527,0.131421,-73.9444,11.9835
1202,5.51536e+08,551536,0.130874,-73.9448,11.984
1203,5.51544e+08,551544,0.130367,-73.9446,11.9844
1204,5.51552e+08,551552,0.131477,-73.9449,11.9834
1205,5.51561e+08,551561,0.134461,-73.9447,11.9811
1206,5.51569e+08,551569,0.132867,-73.9444,11.9827
1207,5.51577e+08,551577,0.134795,-73.9447,11.9808
1208,5.51586e+08,551586,0.136096,-73.9451,11.9794
1209,5.51594e+08,551594,0.137234,-73.9446,11.9773
1210,5.51602e+08,551602,0.137473,-73.9451,11.9776
1211,5.51611e+08,551611,0.135579,-73.9457,11.9791
1212,5.51619e+08,551619,0.137938,-73.946,11.9772
1213,5.51627e+08,551627,0.140519,-73.9462,11.9749
1214,5.51636e+08,551636,0.142454,-73.9461,11.9731
1215,5.51644e+08,551644,0.143899,-73.947,11.9725
1216,5.51652e+08,551652,0.14312,-73.9476,11.9731
1217,5.51661e+08,551661,0.142319,-73.9475,11.9736
1218,5.51669e+08,551669,0.143137,-73.9473,11.9726
1219,5.51677e+08,551677,0.140435,-73.9468,11.9754
1220,5.51686e+08,551686,0.139913,-73.9467,11.9759
1221,5.51694e+08,551694,0.140605,-73.9467,11.9746
1222,5.51702e+08,551702,0.140001,-73.9472,11.9753
1223,5.51711e+08,551711,0.13629,-73.9475,11.9788
1224,5.51719e+08,551719,0.136194,-73.9479,11.979
1225,5.51727e+08,551727,0.137112,-73.9486,11.9786
1226,5.51736e+08,551736,0.137746,-73.9484,11.9777
1227,5.51744e+08,551744,0.137031,-73.9478,11.9788
1228,5.51752e+08,551752,0.136328,-73.9481,11.98
1229,5.51761e+08,551761,0.134222,-73.9479,11.982
1230,5.51769e+08,551769,0.137996,-73.9476,11.9786
1231,5.51777e+08,551777,0.141932,-73.9483,11.9751
1232,5.51786e+08,551786,0.140121,-73.9482,11.9765
1233,5.51794e+08,551794,0.140387,-73.9485,11.9763
1234,5.51802e+08,551802,0.139498,-73.9487,11.9773
1235,5.51811e+08,551811,0.138292,-73.9488,11.979
1236,5.51819e+08,551819,0.139136,-73.9487,11.9779
1237,5.51827e+08,551827,0.138168,-73.9484,11.9785
1238,5.51836e+08,551836,0.138933,-73.9482,11.9783
1239,5.51844e+08,551844,0.141023,-73.9485,11.9757
1240,5.51852e+08,551852,0.142528,-73.9492,11.9731
1241,5.51861e+08,551861,0.14074,-73.9499,11.9742
1242,5.51869e+08,551869,0.141853,-73.9499,11.973
1243,5.51877e+08,551877,0.142539,-73.9502,11.9724
1244,5.51886e+08,551886,0.142842,-73.9496,11.9725
1245,5.51894e+08,551894,0.141972,-73.9498,11.9739
1246,5.51902e+08,551902,0.139999,-73.9497,11.9755
1247,5.51911e+08,551911,0.138147,-73.9499,11.9772
1248,5.51919e+08,551919,0.137556,-73.9508,11.9782
1249,5.51927e+08,551927,0.136674,-73.9508,11.9787
1250,5.51936e+08,551936,0.139344,-73.9507,11.9759
1251,5.51944e+08,551944,0.139507,-73.9507,11.9762
1252,5.51952e+08,551952,0.139146,-73.9496,11.9763
1253,5.51961e+08,551961,0.140376,-73.9501,11.9755
1254,5.51969e+08,551969,0.140452,-73.9496,11.9744
1255,5.51977e+08,551977,0.139746,-73.9497,11.9755
1256,5.51986e+08,551986,0.142447,-73.9494,11.9727
1257,5.51994e+08,551994,0.143394,-73.9482,11.9721
1258,5.52002e+08,552002,0.146247,-73.9477,11.9702
1259,5.52011e+08,552011,0.145116,-73.9477,11.9706
1260,5.52019e+08,552019,0.143175,-73.9479,11.9722
1261,5.52027e+08,552027,0.139827,-73.9472,11.9761
1262,5.52036e+08,552036,0.139487,-73.9468,11.9766
1263,5.52044e+08,552044,0.140778,-73.9465,11.9753
1264,5.52052e+08,552052,0.142665,-73.9464,11.9728
1265,5.52061e+08,552061,0.143853,-73.9467,11.9718
1266,5.52069e+08,552069,0.142908,-73.9465,11.9727
1267,5.52077e+08,552077,0.141753,-73.9466,11.9744
1268,5.52086e+08,552086,0.137802,-73.9465,11.9784
1269,5.52094e+08,552094,0.13596,-73.9466,11.9801
1270,5.52102e+08,552102,0.135509,-73.9463,11.9798
1271,5.52111e+08,552111,0.13432,-73.947,11.9808
1272,5.52119e+08,552119,0.13238,-73.9473,11.9827
1273,5.52127e+08,552127,0.129519,-73.9474,11.9856
1274,5.52136e+08,552136,0.129286,-73.9481,11.9863
1275,5.52144e+08,552144,0.127637,-73.9482,11.9867
1276,5.52152e+08,552152,0.131265,-73.9481,11.9832
1277,5.52161e+08,552161,0.130588,-73.9481,11.9845
1278,5.52169e+08,552169,0.130992,-73.9482,11.9844
1279,5.52177e+08,552177,0.128707,-73.9487,11.9864
1280,5.52186e+08,552186,0.128703,-73.9485,11.9862
1281,5.52194e+08,552194,0.128988,-73.9481,11.9865
1282,5.52202e+08,552202,0.128865,-73.9482,11.9857
1283,5.52211e+08,552211,0.126619,-73.9478,11.9873
1284,5.52219e+08,552219,0.125728,-73.9475,11.9879
1285,5.52227e+08,552227,0.126647,-73.9473,11.9871
1286,5.52236e+08,552236,0.122837,-73.9478,11.9901
1287,5.52244e+08,552244,0.125909,-73.948,11.9863
1288,5.52252e+08,552252,0.127475,-73.9484,11.9855
1289,5.52261e+08,552261,0.129495,-73.9483,11.9834
1290,5.52269e+08,552269,0.12979,-73.9483,11.9826
1291,5.52277e+08,552277,0.13,-73.9478,11.9817
1292,5.52286e+08,552286,0.125497,-73.9475,11.9855
1293,5.52294e+08,552294,0.123708,-73.947,11.9871
1294,5.52302e+08,552302,0.125265,-73.9474,11.9859
1295,5.52311e+08,552311,0.124636,-73.948,11.9864
1296,5.52319e+08,552319,0.126079,-73.9482,11.9848
1297,5.52327e+08,552327,0.12431,-73.9487,11.9867
1298,5.52336e+08,552336,0.12498,-73.9484,11.9858
1299,5.52344e+08,552344,0.126085,-73.9488,11.984
1300,5.52352e+08,552352,0.126069,-73.9489,11.9847
1301,5.52361e+08,552361,0.126854,-73.9484,11.9838
1302,5.52369e+08,552369,0.12741,-73.9486,11.9831
1303,5.52377e+08,552377,0.125882,-73.9486,11.9848
1304,5.52386e+08,552386,0.123994,-73.9487,11.9869
1305,5.52394e+08,552394,0.123924,-73.9482,11.9873
1306,5.52402e+08,552402,0.122159,-73.9482,11.9892
1307,5.52411e+08,552411,0.124358,-73.9482,11.9872
1308,5.52419e+08,552419,0.122927,-73.9485,11.9886
1309,5.52427e+08,552427,0.126499,-73.9483,11.985
1310,5.52436e+08,552436,0.126982,-73.9488,11.9843
1311,5.52444e+08,552444,0.126186,-73.9483,11.9841
1312,5.52452e+08,552452,0.124083,-73.949,11.9854
1313,5.52461e+08,552461,0.125065,-73.9494,11.9845
1314,5.52469e+08,552469,0.126812,-73.9488,11.9834
1315,5.52477e+08,552477,0.124701,-73.9489,11.9857
1316,5.52486e+08,552486,0.121991,-73.949,11.9878
1317,5.52494e+08,552494,0.120524,-73.9494,11.9895
1318,5.52502e+08,552502,0.121154,-73.9501,11.9888
1319,5.52511e+08,552511,0.119908,-73.9505,11.9899
1320,5.52519e+08,552519,0.119575,-73.9498,11.9907
1321,5.52527e+08,552527,0.120739,-73.9496,11.9887
1322,5.52536e+08,552536,0.120914,-73.9503,11.9884
1323,5.52544e+08,552544,0.122098,-73.9503,11.9874
1324,5.52552e+08,552552,0.120576,-73.9505,11.9891
1325,5.52561e+08,552561,0.121143,-73.95,11.9886
1326,5.52569e+08,552569,0.122231,-73.9508,11.987
1327,5.52577e+08,552577,0.120504,-73.9516,11.9884
1328,5.52586e+08,552586,0.122432,-73.9511,11.9865
1329,5.52594e+08,552594,0.123288,-73.9518,11.9852
1330,5.52602e+08,552602,0.123719,-73.952,11.9846
1331,5.52611e+08,552611,0.124157,-73.9522,11.9853
1332,5.52619e+08,552619,0.123399,-73.9521,11.9858
1333,5.52627e+08,552627,0.126321,-73.9513,11.9827
1334,5.52636e+08,552636,0.127711,-73.951,11.9812
1335,5.52644e+08,552644,0.128174,-73.9509,11.9805
1336,5.52652e+08,552652,0.129873,-73.9502,11.9782
1337,5.52661e+08,552661,0.129959,-73.9505,11.978
1338,5.52669e+08,552669,0.128561,-73.9497,11.9793
1339,5.52677e+08,552677,0.126607,-73.9497,11.9813
1340,5.52686e+08,552686,0.127804,-73.9493,11.9797
1341,5.52694e+08,552694,0.126751,-73.95,11.9808
1342,5.52702e+08,552702,0.128872,-73.9513,11.9786
1343,5.52711e+08,552711,0.125071,-73.9518,11.9822
1344,5.52719e+08,552719,0.127328,-73.951,11.9803
1345,5.52727e+08,552727,0.126,-73.951,11.982
1346,5.52736e+08,552736,0.125834,-73.9502,11.9822
1347,5.52744e+08,552744,0.127567,-73.9502,11.9804
1348,5.52752e+08,552752,0.125672,-73.9501,11.9812
1349,5.52761e+08,552761,0.12413,-73.9499,11.9808
1350,5.52769e+08,552769,0.121111,-73.9497,11.983
1351,5.52777e+08,552777,0.120432,-73.95,11.9836
1352,5.52786e+08,552786,0.122204,-73.9508,11.9811
1353,5.52794e+08,552794,0.119045,-73.9502,11.9835
1354,5.52802e+08,552802,0.117543,-73.9491,11.9846
1355,5.52811e+08,552811,0.118653,-73.949,11.9826
1356,5.52819e+08,552819,0.116916,-73.9492,11.9843
1357,5.52827e+08,552827,0.119623,-73.9485,11.9819
1358,5.52836e+08,552836,0.12271,-73.9495,11.9796
1359,5.52844e+08,552844,0.121477,-73.9497,11.9808
1360,5.52852e+08,552852,0.120388,-73.9496,11.9817
1361,5.52861e+08,552861,0.124384,-73.9501,11.9788
1362,5.52869e+08,552869,0.121731,-73.9506,11.9807
1363,5.52877e+08,552877,0.118002,-73.9506,11.9847
1364,5.52886e+08,552886,0.115412,-73.9501,11.9872
1365,5.52894e+08,552894,0.116418,-73.9503,11.9866
1366,5.52902e+08,552902,0.118022,-73.9502,11.9854
1367,5.52911e+08,552911,0.117812,-73.9502,11.9862
1368,5.52919e+08,552919,0.116544,-73.9503,11.9869
1369,5.52927e+08,552927,0.116304,-73.9511,11.9868
1370,5.52936e+08,552936,0.115603,-73.9505,11.9871
1371,5.52944e+08,552944,0.116276,-73.9508,11.9872
1372,5.52952e+08,552952,0.114215,-73.9513,11.9887
1373,5.52961e+08,552961,0.114462,-73.9514,11.988
1374,5.52969e+08,552969,0.110846,-73.951,11.991
1375,5.52977e+08,552977,0.114518,-73.9515,11.988
1376,5.52986e+08,552986,0.111256,-73.9506,11.9915
1377,5.52994e+08,552994,0.111074,-73.9512,11.9917
1378,5.53002e+08,553002,0.109695,-73.9509,11.9925
1379,5.53011e+08,553011,0.108679,-73.9509,11.9933
1380,5.53019e+08,553019,0.110389,-73.9508,11.9925
1381,5.53027e+08,553027,0.108491,-73.9512,11.9943
1382,5.53036e+08,553036,0.11228,-73.9508,11.9916
1383,5.53044e+08,553044,0.111488,-73.9506,11.9928
1384,5.53052e+08,553052,0.11321,-73.9503,11.992
1385,5.53061e+08,553061,0.111099,-73.9505,11.9942
1386,5.53069e+08,553069,0.113199,-73.9509,11.9921
1387,5.53077e+08,553077,0.114503,-73.9516,11.9904
1388,5.53086e+08,553086,0.114862,-73.9521,11.9897
1389,5.53094e+08,553094,0.116304,-73.9522,11.9886
1390,5.53102e+08,553102,0.116973,-73.9522,11.9875
1391,5.53111e+08,553111,0.119186,-73.9524,11.9855
1392,5.53119e+08,553119,0.120077,-73.9523,11.9846
1393,5.53127e+08,553127,0.119593,-73.9525,11.9851
1394,5.53136e+08,553136,0.118417,-73.9527,11.9858
1395,5.53144e+08,553144,0.116691,-73.9537,11.9875
1396,5.53152e+08,553152,0.117831,-73.9543,11.9872
1397,5.53161e+08,553161,0.116731,-73.9545,11.9885
1398,5.53169e+08,553169,0.117573,-73.9552,11.9879
1399,5.53177e+08,553177,0.114987,-73.9559,11.99
1400,5.53186e+08,553186,0.114212,-73.9562,11.9902
1401,5.53194e+08,553194,0.110983,-73.9564,11.9938
1402,5.53202e+08,553202,0.112635,-73.9561,11.9928
1403,5.53211e+08,553211,0.111788,-73.9558,11.9942
1404,5.53219e+08,553219,0.112205,-73.955,11.9929
1405,5.53227e+08,553227,0.109467,-73.9539,11.9951
1406,5.53236e+08,553236,0.106023,-73.9543,11.9982
1407,5.53244e+08,553244,0.105831,-73.954,11.998
1408,5.53252e+08,553252,0.100612,-73.9543,12.0027
1409,5.53261e+08,553261,0.0997572,-73.9539,12.0032
1410,5.53269e+08,553269,0.099358,-73.9541,12.0038
1411,5.53277e+08,553277,0.0984168,-73.9539,12.0051
1412,5.53286e+08,553286,0.0967253,-73.9536,12.0068
1413,5.53294e+08,553294,0.0967985,-73.9535,12.0064
1414,5.53302e+08,553302,0.098917,-73.9537,12.0047
1415,5.53311e+08,553311,0.10054,-73.9536,12.0036
1416,5.53319e+08,553319,0.101223,-73.954,12.0024
1417,5.53327e+08,553327,0.101724,-73.9549,12.0011
1418,5.53336e+08,553336,0.100096,-73.9547,12.003
1419,5.53344e+08,553344,0.101606,-73.9547,12.0012
1420,5.53352e+08,553352,0.103429,-73.954,11.9999
1421,5.53361e+08,553361,0.0999575,-73.9533,12.0033
1422,5.53369e+08,553369,0.0998277,-73.9531,12.0032
1423,5.53377e+08,553377,0.0988133,-73.9533,12.0044
1424,5.53386e+08,553386,0.0982242,-73.9535,12.0044
1425,5.53394e+08,553394,0.0979651,-73.9533,12.0045
1426,5.53402e+08,553402,0.101355,-73.9531,12.0013
1427,5.53411e+08,553411,0.0988598,-73.9536,12.0035
1428,5.53419e+08,553419,0.0988484,-73.9541,12.0041
1429,5.53427e+08,553427,0.0990471,-73.954,12.0035
1430,5.53436e+08,553436,0.0992247,-73.9537,12.0045
1431,5.53444e+08,553444,0.0989305,-73.9531,12.0045
1432,5.53452e+08,553452,0.0957591,-73.9527,12.0076
1433,5.53461e+08,553461,0.0949138,-73.9528,12.0086
1434,5.53469e+08,553469,0.0958958,-73.953,12.0078
1435,5.53477e+08,553477,0.0964375,-73.9527,12.0072
1436,5.53486e+08,553486,0.0951847,-73.9529,12.0083
1437,5.53494e+08,553494,0.129464,-73.947,11.9751
1438,5.53502e+08,553502,0.129714,-73.9468,11.9736
1439,5.53511e+08,553511,0.128257,-73.9465,11.9746
1440,5.53519e+08,553519,0.12829,-73.9469,11.975
1441,5.53527e+08,553527,0.123706,-73.9467,11.9791
1442,5.53536e+08,553536,0.123793,-73.947,11.9789
1443,5.53544e+08,553544,0.122842,-73.947,11.9795
1444,5.53552e+08,553552,0.122557,-73.9469,11.9804
1445,5.53561e+08,553561,0.124716,-73.9469,11.9788
1446,5.53569e+08,553569,0.125179,-73.9463,11.978
1447,5.53577e+08,553577,0.123951,-73.9469,11.9796
1448,5.53586e+08,553586,0.120587,-73.9461,11.9827
1449,5.53594e+08,553594,0.119577,-73.9455,11.9839
1450,5.53602e+08,553602,0.116965,-73.9453,11.9862
1451,5.53611e+08,553611,0.119828,-73.9452,11.9837
1452,5.53619e+08,553619,0.11914,-73.9443,11.985
1453,5.53627e+08,553627,0.119046,-73.9442,11.985
1454,5.53636e+08,553636,0.118834,-73.944,11.9842
1455,5.53644e+08,553644,0.117483,-73.9443,11.9861
1456,5.53652e+08,553652,0.116383,-73.9441,11.9866
1457,5.53661e+08,553661,0.115829,-73.9446,11.987
1458,5.53669e+08,553669,0.116756,-73.9442,11.9857
1459,5.53677e+08,553677,0.116496,-73.9444,11.9858
1460,5.53686e+08,553686,0.113749,-73.9443,11.989
1461,5.53694e+08,553694,0.112587,-73.9446,11.9905
1462,5.53702e+08,553702,0.112426,-73.9441,11.9902
1463,5.53711e+08,553711,0.113531,-73.9447,11.9889
1464,5.53719e+08,553719,0.112079,-73.9436,11.9902
1465,5.53727e+08,553727,0.111563,-73.9432,11.9904
1466,5.53736e+08,553736,0.108987,-73.9433,11.9932
1467,5.53744e+08,553744,0.110101,-73.9437,11.9925
1468,5.53752e+08,553752,0.108289,-73.9446,11.9937
1469,5.53761e+08,553761,0.110714,-73.9444,11.9917
1470,5.53769e+08,553769,0.110378,-73.9442,11.992
1471,5.53777e+08,553777,0.10967,-73.9448,11.992
1472,5.53786e+08,553786,0.107547,-73.9445,11.9939
1473,5.53794e+08,553794,0.108236,-73.9448,11.9942
1474,5.53802e+08,553802,0.111692,-73.9446,11.9909
1475,5.53811e+08,553811,0.110823,-73.9439,11.9916
1476,5.53819e+08,553819,0.110939,-73.9436,11.9913
1477,5.53827e+08,553827,0.111841,-73.9437,11.99
1478,5.53836e+08,553836,0.11541,-73.9439,11.9861
1479,5.53844e+08,553844,0.11633,-73.9436,11.9846
1480,5.53852e+08,553852,0.116297,-73.9433,11.9852
1481,5.53861e+08,553861,0.115592,-73.9429,11.9867
1482,5.53869e+08,553869,0.114488,-73.9436,11.9877
1483,5.53877e+08,553877,0.115345,-73.9441,11.9865
1484,5.53886e+08,553886,0.117329,-73.944,11.9847
1485,5.53894e+08,553894,0.119872,-73.9428,11.982
1486,5.53902e+08,553902,0.116584,-73.943,11.9843
1487,5.53911e+08,553911,0.111493,-73.9428,11.9893
1488,5.53919e+08,553919,0.111544,-73.9428,11.9896
1489,5.53927e+08,553927,0.113007,-73.9421,11.9885
1490,5.53936e+08,553936,0.114976,-73.9436,11.9872
1491,5.53944e+08,553944,0.117078,-73.9442,11.9848
1492,5.53952e+08,553952,0.116347,-73.9443,11.9852
1493,5.53961e+08,553961,0.11755,-73.9446,11.9847
1494,5.53969e+08,553969,0.115922,-73.9451,11.9864
1495,5.53977e+08,553977,0.11571,-73.9446,11.986
1496,5.53986e+08,553986,0.116902,-73.9445,11.9849
1497,5.53994e+08,553994,0.116809,-73.9441,11.9854
1498,5.54002e+08,554002,0.114314,-73.9438,11.988
1499,5.54011e+08,554011,0.117245,-73.9443,11.9848
1500,5.54019e+08,554019,0.116747,-73.9442,11.9851
1501,5.54027e+08,554027,0.116758,-73.9445,11.9853
1502,5.54036e+08,554036,0.116814,-73.9445,11.9856
1503,5.54044e+08,554044,0.114713,-73.9438,11.9876
1504,5.54052e+08,554052,0.117304,-73.944,11.9858
1505,5.54061e+08,554061,0.11999,-73.9435,11.9834
1506,5.54069e+08,554069,0.123091,-73.9431,11.9798
1507,5.54077e+08,554077,0.12388,-73.9429,11.98
1508,5.54086e+08,554086,0.123072,-73.9425,11.9811
1509,5.54094e+08,554094,0.12479,-73.9421,11.9789
1510,5.54102e+08,554102,0.126896,-73.9423,11.9765
1511,5.54111e+08,554111,0.128442,-73.9424,11.9751
1512,5.54119e+08,554119,0.130651,-73.9426,11.9722
1513,5.54127e+08,554127,0.131956,-73.9429,11.9711
1514,5.54136e+08,554136,0.12982,-73.9424,11.9743
1515,5.54144e+08,554144,0.128503,-73.9428,11.9755
1516,5.54152e+08,554152,0.128806,-73.9424,11.9753
1517,5.54161e+08,554161,0.126261,-73.9427,11.9782
1518,5.54169e+08,554169,0.124458,-73.9426,11.9803
1519,5.54177e+08,554177,0.124603,-73.9424,11.9803
1520,5.54186e+08,554186,0.124785,-73.9422,11.9802
1521,5.54194e+08,554194,0.126542,-73.9417,11.9777
1522,5.54202e+08,554202,0.126376,-73.9429,11.9781
1523,5.54211e+08,554211,0.128172,-73.9428,11.9762
1524,5.54219e+08,554219,0.124024,-73.9426,11.9806
1525,5.54227e+08,554227,0.123291,-73.9426,11.9815
1526,5.54236e+08,554236,0.121732,-73.9423,11.9836
1527,5.54244e+08,554244,0.118913,-73.942,11.9871
1528,5.54252e+08,554252,0.118426,-73.9422,11.9875
1529,5.54261e+08,554261,0.115873,-73.9428,11.9908
1530,5.54269e+08,554269,0.116642,-73.9429,11.99
1531,5.54277e+08,554277,0.117255,-73.9431,11.9886
1532,5.54286e+08,554286,0.11652,-73.9433,11.9887
1533,5.54294e+08,554294,0.112423,-73.9441,11.9924
1534,5.54302e+08,554302,0.111178,-73.9439,11.9943
1535,5.54311e+08,554311,0.11023,-73.9439,11.9959
1536,5.54319e+08,554319,0.111868,-73.9439,11.9938
1537,5.54327e+08,554327,0.113838,-73.9435,11.9915
1538,5.54336e+08,554336,0.116101,-73.943,11.9891
1539,5.54344e+08,554344,0.114263,-73.9433,11.9911
1540,5.54352e+08,554352,0.113176,-73.9429,11.9929
1541,5.54361e+08,554361,0.113617,-73.9428,11.9926
1542,5.54369e+08,554369,0.110247,-73.943,11.996
1543,5.54377e+08,554377,0.110125,-73.9434,11.9963
1544,5.54386e+08,554386,0.109974,-73.9427,11.9969
1545,5.54394e+08,554394,0.111268,-73.9424,11.9959
1546,5.54402e+08,554402,0.114242,-73.9421,11.9933
1547,5.54411e+08,554411,0.116367,-73.9421,11.9915
1548,5.54419e+08,554419,0.118307,-73.9424,11.9881
1549,5.54427e+08,554427,0.117866,-73.9428,11.9883
1550,5.54436e+08,554436,0.116091,-73.9417,11.9898
1551,5.54444e+08,554444,0.115407,-73.9412,11.9907
1552,5.54452e+08,554452,0.113837,-73.9415,11.992
1553,5.54461e+08,554461,0.111836,-73.9415,11.9946
1554,5.54469e+08,554469,0.112844,-73.942,11.9932
1555,5.54477e+08,554477,0.111719,-73.941,11.9945
1556,5.54486e+08,554486,0.108795,-73.941,11.9974
1557,5.54494e+08,554494,0.107735,-73.9406,11.9985
1558,5.54502e+08,554502,0.10517,-73.9412,12.0017
1559,5.54511e+08,554511,0.103939,-73.9409,12.0041
1560,5.54519e+08,554519,0.102445,-73.9409,12.0058
1561,5.54527e+08,554527,0.0995377,-73.9406,12.0086
1562,5.54536e+08,554536,0.10071,-73.9404,12.007
1563,5.54544e+08,554544,0.103432,-73.9403,12.0046
1564,5.54552e+08,554552,0.101899,-73.9399,12.0048
1565,5.54561e+08,554561,0.100337,-73.9386,12.0064
1566,5.54569e+08,554569,0.102002,-73.939,12.0062
1567,5.54577e+08,554577,0.104333,-73.9392,12.0043
1568,5.54586e+08,554586,0.103881,-73.939,12.0045
1569,5.54594e+08,554594,0.104282,-73.9391,12.0045
1570,5.54602e+08,554602,0.104842,-73.9393,12.0041
1571,5.54611e+08,554611,0.104936,-73.939,12.0029
1572,5.54619e+08,554619,0.108018,-73.9386,12
1573,5.54627e+08,554627,0.109603,-73.9395,11.9984
1574,5.54636e+08,554636,0.110845,-73.9394,11.9983
1575,5.54644e+08,554644,0.109465,-73.9391,11.9994
1576,5.54652e+08,554652,0.108609,-73.9391,12.0002
1577,5.54661e+08,554661,0.10893,-73.9394,11.9995
1578,5.54669e+08,554669,0.109137,-73.9386,12.0002
1579,5.54677e+08,554677,0.105799,-73.9392,12.0035
1580,5.54686e+08,554686,0.105511,-73.9394,12.0039
1581,5.54694e+08,554694,0.104962,-73.9399,12.0051
1582,5.54702e+08,554702,0.102352,-73.9399,12.0075
1583,5.54711e+08,554711,0.103083,-73.9397,12.0066
1584,5.54719e+08,554719,0.10497,-73.9394,12.0044
1585,5.54727e+08,554727,0.107038,-73.9397,12.0027
1586,5.54736e+08,554736,0.109248,-73.9398,12.0003
1587,5.54744e+08,554744,0.108193,-73.9399,12.0015
1588,5.54752e+08,554752,0.10711,-73.9398,12.0023
1589,5.54761e+08,554761,0.106855,-73.9394,12.003
1590,5.54769e+08,554769,0.105325,-73.9389,12.0041
1591,5.54777e+08,554777,0.104413,-73.9387,12.0053
1592,5.54786e+08,554786,0.103305,-73.9382,12.0066
1593,5.54794e+08,554794,0.103778,-73.938,12.0067
1594,5.54802e+08,554802,0.105288,-73.9376,12.0044
1595,5.54811e+08,554811,0.106399,-73.9376,12.0035
1596,5.54819e+08,554819,0.104922,-73.9382,12.0049
1597,5.54827e+08,554827,0.104623,-73.9381,12.005
1598,5.54836e+08,554836,0.104281,-73.9386,12.006
1599,5.54844e+08,554844,0.103516,-73.9389,12.0069
1600,5.54852e+08,554852,0.103116,-73.9385,12.0079
1601,5.54861e+08,554861,0.100684,-73.9392,12.0106
1602,5.54869e+08,554869,0.100277,-73.9389,12.01
1603,5.54877e+08,554877,0.101853,-73.9395,12.0083
1604,5.54886e+08,554886,0.102564,-73.9396,12.0073
1605,5.54894e+08,554894,0.0994698,-73.9399,12.0102
1606,5.54902e+08,554902,0.0994564,-73.9402,12.0106
1607,5.54911e+08,554911,0.0994773,-73.9394,12.011
1608,5.54919e+08,554919,0.101089,-73.9387,12.0094
1609,5.54927e+08,554927,0.103352,-73.9388,12.0072
1610,5.54936e+08,554936,0.105324,-73.9381,12.0048
1611,5.54944e+08,554944,0.104613,-73.9378,12.0065
1612,5.54952e+08,554952,0.103799,-73.938,12.007
1613,5.54961e+08,554961,0.107687,-73.9373,12.0038
1614,5.54969e+08,554969,0.111662,-73.9369,12.0004
1615,5.54977e+08,554977,0.111254,-73.9364,12.0003
1616,5.54986e+08,554986,0.109351,-73.9367,12.0024
1617,5.54994e+08,554994,0.109468,-73.9369,12.0027
1618,5.55002e+08,555002,0.108793,-73.937,12.0028
1619,5.55011e+08,555011,0.108151,-73.9372,12.0043
1620,5.55019e+08,555019,0.109978,-73.9366,12.0032
1621,5.55027e+08,555027,0.10959,-73.9364,12.0042
1622,5.55036e+08,555036,0.112322,-73.9369,12.0001
1623,5.55044e+08,555044,0.111723,-73.9368,12.0008
1624,5.55052e+08,555052,0.113377,-73.9371,11.9989
1625,5.55061e+08,555061,0.113496,-73.9372,11.9997
1626,5.55069e+08,555069,0.11192,-73.9369,12.0011
1627,5.55077e+08,555077,0.111739,-73.9371,12.0013
1628,5.55086e+08,555086,0.111394,-73.9368,12.0017
1629,5.55094e+08,555094,0.113463,-73.9366,12.0002
1630,5.55102e+08,555102,0.112174,-73.9363,12.0013
1631,5.55111e+08,555111,0.113666,-73.936,12
1632,5.55119e+08,555119,0.112498,-73.936,12.0013
1633,5.55127e+08,555127,0.110283,-73.9362,12.0033
1634,5.55136e+08,555136,0.109435,-73.9356,12.0047
1635,5.55144e+08,555144,0.108906,-73.9366,12.005
1636,5.55152e+08,555152,0.107953,-73.936,12.0054
1637,5.55161e+08,555161,0.108629,-73.936,12.0052
1638,5.55169e+08,555169,0.108659,-73.9359,12.0041
1639,5.55177e+08,555177,0.109117,-73.9358,12.0042
1640,5.55186e+08,555186,0.108501,-73.9363,12.005
1641,5.55194e+08,555194,0.107788,-73.9369,12.0059
1642,5.55202e+08,555202,0.10657,-73.9364,12.007
1643,5.55211e+08,555211,0.104326,-73.9367,12.0091
1644,5.55219e+08,555219,0.104445,-73.936,12.0096
1645,5.55227e+08,555227,0.108275,-73.9365,12.0065
1646,5.55236e+08,555236,0.105817,-73.937,12.0094
1647,5.55244e+08,555244,0.106825,-73.9376,12.0083
1648,5.55252e+08,555252,0.110101,-73.9374,12.0048
1649,5.55261e+08,555261,0.109412,-73.9373,12.0057
1650,5.55269e+08,555269,0.10952,-73.9375,12.0055
1651,5.55277e+08,555277,0.109436,-73.9374,12.0057
1652,5.55286e+08,555286,0.113271,-73.9369,12.0016
1653,5.55294e+08,555294,0.111464,-73.9373,12.0034
1654,5.55302e+08,555302,0.113445,-73.9368,12.0006
1655,5.55311e+08,555311,0.115482,-73.9372,11.999
1656,5.55319e+08,555319,0.116292,-73.9372,11.9986
1657,5.55327e+08,555327,0.116824,-73.9367,11.9976
1658,5.55336e+08,555336,0.114941,-73.9365,11.9994
1659,5.55344e+08,555344,0.113409,-73.9367,12.0009
1660,5.55352e+08,555352,0.112001,-73.9368,12.0031
1661,5.55361e+08,555361,0.112549,-73.9362,12.0025
1662,5.55369e+08,555369,0.113581,-73.9357,12.0015
1663,5.55377e+08,555377,0.112811,-73.935,12.0028
1664,5.55386e+08,555386,0.113111,-73.9351,12.0022
1665,5.55394e+08,555394,0.114282,-73.9354,12.0018
1666,5.55402e+08,555402,0.113234,-73.9349,12.0022
1667,5.55411e+08,555411,0.112998,-73.9351,12.0022
1668,5.55419e+08,555419,0.111954,-73.935,12.0033
1669,5.55427e+08,555427,0.112844,-73.9347,12.0028
1670,5.55436e+08,555436,0.110542,-73.9349,12.0046
1671,5.55444e+08,555444,0.113288,-73.9348,12.0016
1672,5.55452e+08,555452,0.117559,-73.9346,11.9971
1673,5.55461e+08,555461,0.118867,-73.935,11.9959
1674,5.55469e+08,555469,0.118122,-73.9345,11.9976
1675,5.55477e+08,555477,0.119529,-73.9342,11.9965
1676,5.55486e+08,555486,0.119381,-73.9342,11.9966
1677,5.55494e+08,555494,0.124586,-73.9464,11.9744
1678,5.55502e+08,555502,0.125656,-73.9465,11.9738
1679,5.55511e+08,555511,0.126679,-73.9467,11.9723
1680,5.55519e+08,555519,0.127812,-73.9463,11.9714
1681,5.55527e+08,555527,0.127668,-73.947,11.9719
1682,5.55536e+08,555536,0.128327,-73.9468,11.9712
1683,5.55544e+08,555544,0.129278,-73.9465,11.9708
1684,5.55552e+08,555552,0.130419,-73.9465,11.9696
1685,5.55561e+08,555561,0.128902,-73.9465,11.9713
1686,5.55569e+08,555569,0.129064,-73.9459,11.9717
1687,5.55577e+08,555577,0.12806,-73.9462,11.9727
1688,5.55586e+08,555586,0.128291,-73.9472,11.9722
1689,5.55594e+08,555594,0.127585,-73.9473,11.9732
1690,5.55602e+08,555602,0.125295,-73.9478,11.9758
1691,5.55611e+08,555611,0.123444,-73.9477,11.9781
1692,5.55619e+08,555619,0.123501,-73.9475,11.9779
1693,5.55627e+08,555627,0.12505,-73.9475,11.9765
1694,5.55636e+08,555636,0.125802,-73.9465,11.9757
1695,5.55644e+08,555644,0.124726,-73.9452,11.9772
1696,5.55652e+08,555652,0.124022,-73.9453,11.9774
1697,5.55661e+08,555661,0.121914,-73.9451,11.9791
1698,5.55669e+08,555669,0.123877,-73.9448,11.9768
1699,5.55677e+08,555677,0.126477,-73.9449,11.9745
1700,5.55686e+08,555686,0.124988,-73.945,11.9759
1701,5.55694e+08,555694,0.124153,-73.9442,11.9769
1702,5.55702e+08,555702,0.125123,-73.9444,11.9762
1703,5.55711e+08,555711,0.125502,-73.9435,11.9759
1704,5.55719e+08,555719,0.126932,-73.9435,11.9744
1705,5.55727e+08,555727,0.126698,-73.9433,11.9749
1706,5.55736e+08,555736,0.126889,-73.943,11.9737
1707,5.55744e+08,555744,0.126659,-73.9431,11.9738
1708,5.55752e+08,555752,0.124263,-73.9437,11.9755
1709,5.55761e+08,555761,0.124266,-73.9438,11.9752
1710,5.55769e+08,555769,0.127999,-73.9431,11.9709
1711,5.55777e+08,555777,0.128732,-73.9431,11.9706
1712,5.55786e+08,555786,0.128703,-73.9433,11.9705
1713,5.55794e+08,555794,0.129135,-73.9436,11.9701
1714,5.55802e+08,555802,0.129998,-73.9442,11.9694
1715,5.55811e+08,555811,0.129486,-73.9442,11.9699
1716,5.55819e+08,555819,0.128776,-73.944,11.9711
1717,5.55827e+08,555827,0.132305,-73.9433,11.9673
1718,5.55836e+08,555836,0.133367,-73.943,11.9666
1719,5.55844e+08,555844,0.133168,-73.9424,11.9674
1720,5.55852e+08,555852,0.134478,-73.9419,11.9655
1721,5.55861e+08,555861,0.133924,-73.942,11.9664
1722,5.55869e+08,555869,0.133376,-73.9424,11.967
1723,5.55877e+08,555877,0.131732,-73.9432,11.968
1724,5.55886e+08,555886,0.130447,-73.9434,11.9686
1725,5.55894e+08,555894,0.130857,-73.9432,11.9682
1726,5.55902e+08,555902,0.128555,-73.9435,11.9698
1727,5.55911e+08,555911,0.126396,-73.9438,11.9716
1728,5.55919e+08,555919,0.126885,-73.9432,11.9711
1729,5.55927e+08,555927,0.127016,-73.9434,11.9705
1730,5.55936e+08,555936,0.125379,-73.9432,11.9719
1731,5.55944e+08,555944,0.1232,-73.9427,11.9744
1732,5.55952e+08,555952,0.123262,-73.943,11.9745
1733,5.55961e+08,555961,0.121764,-73.9421,11.9756
1734,5.55969e+08,555969,0.120511,-73.942,11.9766
1735,5.55977e+08,555977,0.122731,-73.9412,11.974
1736,5.55986e+08,555986,0.124667,-73.9417,11.9718
1737,5.55994e+08,555994,0.122902,-73.9417,11.9734
1738,5.56002e+08,556002,0.121152,-73.9416,11.975
1739,5.56011e+08,556011,0.120641,-73.9418,11.9757
1740,5.56019e+08,556019,0.121441,-73.9425,11.9736
1741,5.56027e+08,556027,0.119042,-73.9428,11.9757
1742,5.56036e+08,556036,0.12099,-73.9428,11.9737
1743,5.56044e+08,556044,0.121542,-73.9421,11.9729
1744,5.56052e+08,556052,0.12117,-73.9421,11.9737
1745,5.56061e+08,556061,0.123033,-73.9422,11.9722
1746,5.56069e+08,556069,0.123408,-73.9426,11.9724
1747,5.56077e+08,556077,0.12316,-73.9426,11.9727
1748,5.56086e+08,556086,0.12168,-73.9425,11.974
1749,5.56094e+08,556094,0.122793,-73.9431,11.9731
1750,5.56102e+08,556102,0.121565,-73.9426,11.9743
1751,5.56111e+08,556111,0.123957,-73.9426,11.972
1752,5.56119e+08,556119,0.123149,-73.9426,11.9726
1753,5.56127e+08,556127,0.12316,-73.9429,11.9724
1754,5.56136e+08,556136,0.118049,-73.9423,11.9781
1755,5.56144e+08,556144,0.115377,-73.9425,11.9808
1756,5.56152e+08,556152,0.116317,-73.9422,11.98
1757,5.56161e+08,556161,0.115752,-73.942,11.9807
1758,5.56169e+08,556169,0.116956,-73.9418,11.9794
1759,5.56177e+08,556177,0.117948,-73.9424,11.9782
1760,5.56186e+08,556186,0.117767,-73.9423,11.978
1761,5.56194e+08,556194,0.116761,-73.9424,11.9798
1762,5.56202e+08,556202,0.113866,-73.9427,11.9829
1763,5.56211e+08,556211,0.112491,-73.9432,11.9846
1764,5.56219e+08,556219,0.112467,-73.9432,11.9845
1765,5.56227e+08,556227,0.112541,-73.9427,11.9845
1766,5.56236e+08,556236,0.11063,-73.9423,11.9865
1767,5.56244e+08,556244,0.107731,-73.9409,11.9892
1768,5.56252e+08,556252,0.104745,-73.941,11.9922
1769,5.56261e+08,556261,0.105406,-73.9408,11.9913
1770,5.56269e+08,556269,0.106276,-73.941,11.9898
1771,5.56277e+08,556277,0.104754,-73.9413,11.9907
1772,5.56286e+08,556286,0.101638,-73.9414,11.9939
1773,5.56294e+08,556294,0.100966,-73.9406,11.9955
1774,5.56302e+08,556302,0.0997194,-73.9403,11.9957
1775,5.56311e+08,556311,0.101155,-73.9411,11.9948
1776,5.56319e+08,556319,0.104951,-73.9408,11.9915
1777,5.56327e+08,556327,0.105425,-73.9408,11.9914
1778,5.56336e+08,556336,0.0996135,-73.9409,11.9965
1779,5.56344e+08,556344,0.0954186,-73.9421,12.0002
1780,5.56352e+08,556352,0.0956591,-73.9421,12
1781,5.56361e+08,556361,0.0960225,-73.9409,11.9989
1782,5.56369e+08,556369,0.095867,-73.9412,11.9995
1783,5.56377e+08,556377,0.0929329,-73.9409,12.0021
1784,5.56386e+08,556386,0.088027,-73.9414,12.0066
1785,5.56394e+08,556394,0.0844313,-73.9414,12.01
1786,5.56402e+08,556402,0.0853202,-73.9415,12.0088
1787,5.56411e+08,556411,0.0873525,-73.9408,12.0069
1788,5.56419e+08,556419,0.0852564,-73.941,12.0089
1789,5.56427e+08,556427,0.0835134,-73.9403,12.0101
1790,5.56436e+08,556436,0.0838427,-73.9404,12.0097
1791,5.56444e+08,556444,0.0817567,-73.9395,12.0121
1792,5.56452e+08,556452,0.0825181,-73.9396,12.0111
1793,5.56461e+08,556461,0.0745721,-73.9398,12.0187
1794,5.56469e+08,556469,0.0720996,-73.9404,12.0204
1795,5.56477e+08,556477,0.0682593,-73.9394,12.0238
1796,5.56486e+08,556486,0.070356,-73.9397,12.0218
1797,5.56494e+08,556494,0.0705054,-73.94,12.0208
1798,5.56502e+08,556502,0.0717799,-73.9403,12.0195
1799,5.56511e+08,556511,0.0745046,-73.9409,12.0168
1800,5.56519e+08,556519,0.0754945,-73.9405,12.0161
1801,5.56527e+08,556527,0.0735161,-73.9401,12.0183
1802,5.56536e+08,556536,0.0700374,-73.9392,12.022
1803,5.56544e+08,556544,0.0672675,-73.9395,12.0245
1804,5.56552e+08,556552,0.0675132,-73.9392,12.0241
1805,5.56561e+08,556561,0.065231,-73.938,12.0262
1806,5.56569e+08,556569,0.0649715,-73.9376,12.0264
1807,5.56577e+08,556577,0.0652033,-73.9373,12.0264
1808,5.56586e+08,556586,0.0652935,-73.9367,12.0269
1809,5.56594e+08,556594,0.0629593,-73.9367,12.0288
1810,5.56602e+08,556602,0.0613703,-73.9375,12.0306
1811,5.56611e+08,556611,0.0644549,-73.9368,12.0275
1812,5.56619e+08,556619,0.0626969,-73.9362,12.0295
1813,5.56627e+08,556627,0.0646523,-73.936,12.0277
1814,5.56636e+08,556636,0.0650025,-73.9368,12.0269
1815,5.56644e+08,556644,0.0636739,-73.9371,12.0288
1816,5.56652e+08,556652,0.0647643,-73.9379,12.0272
1817,5.56661e+08,556661,0.0641507,-73.9384,12.027
1818,5.56669e+08,556669,0.0650504,-73.9381,12.0258
1819,5.56677e+08,556677,0.0628999,-73.9373,12.0277
1820,5.56686e+08,556686,0.0625963,-73.9375,12.0276
1821,5.56694e+08,556694,0.0640604,-73.937,12.0257
1822,5.56702e+08,556702,0.0641316,-73.9374,12.0254
1823,5.56711e+08,556711,0.0621088,-73.9374,12.0275
1824,5.56719e+08,556719,0.0634288,-73.938,12.0262
1825,5.56727e+08,556727,0.0640061,-73.9389,12.0258
1826,5.56736e+08,556736,0.0638419,-73.9391,12.0265
1827,5.56744e+08,556744,0.0625244,-73.9388,12.0278
1828,5.56752e+08,556752,0.0620985,-73.9387,12.028
1829,5.56761e+08,556761,0.0636778,-73.9394,12.0267
1830,5.56769e+08,556769,0.0637698,-73.9396,12.0267
1831,5.56777e+08,556777,0.0606857,-73.9402,12.0305
1832,5.56786e+08,556786,0.061304,-73.9392,12.0296
1833,5.56794e+08,556794,0.0614917,-73.9391,12.0302
1834,5.56802e+08,556802,0.0620069,-73.939,12.0298
1835,5.56811e+08,556811,0.0607208,-73.9384,12.0307
1836,5.56819e+08,556819,0.0593139,-73.9385,12.0329
1837,5.56827e+08,556827,0.0579211,-73.9386,12.0347
1838,5.56836e+08,556836,0.0592378,-73.9392,12.0336
1839,5.56844e+08,556844,0.0598083,-73.9395,12.0331
1840,5.56852e+08,556852,0.0606667,-73.9387,12.0323
1841,5.56861e+08,556861,0.0619918,-73.9383,12.0322
1842,5.56869e+08,556869,0.0629523,-73.9385,12.0317
1843,5.56877e+08,556877,0.0609452,-73.9378,12.0344
1844,5.56886e+08,556886,0.0599041,-73.9387,12.0362
1845,5.56894e+08,556894,0.0619957,-73.9382,12.0347
1846,5.56902e+08,556902,0.0649883,-73.9382,12.0318
1847,5.56911e+08,556911,0.0654652,-73.938,12.0316
1848,5.56919e+08,556919,0.0671642,-73.9376,12.0305
1849,5.56927e+08,556927,0.0700992,-73.9385,12.027
1850,5.56936e+08,556936,0.0705907,-73.9394,12.0265
1851,5.56944e+08,556944,0.0714514,-73.9397,12.0258
1852,5.56952e+08,556952,0.0726536,-73.9401,12.0251
1853,5.56961e+08,556961,0.0746121,-73.9408,12.0237
1854,5.56969e+08,556969,0.0745999,-73.9406,12.0234
1855,5.56977e+08,556977,0.0763574,-73.9402,12.0218
1856,5.56986e+08,556986,0.0763766,-73.9402,12.0219
1857,5.56994e+08,556994,0.0792685,-73.9403,12.0198
1858,5.57002e+08,557002,0.0805699,-73.9404,12.018
1859,5.57011e+08,557011,0.0807304,-73.9401,12.0174
1860,5.57019e+08,557019,0.0802379,-73.9404,12.0169
1861,5.57027e+08,557027,0.0784068,-73.9409,12.0191
1862,5.57036e+08,557036,0.0792874,-73.9417,12.0187
1863,5.57044e+08,557044,0.0804257,-73.9413,12.0172
1864,5.57052e+08,557052,0.0824076,-73.9413,12.0152
1865,5.57061e+08,557061,0.0827742,-73.9415,12.0152
1866,5.57069e+08,557069,0.082194,-73.9412,12.0165
1867,5.57077e+08,557077,0.0833223,-73.9412,12.0159
1868,5.57086e+08,557086,0.0853921,-73.941,12.0135
1869,5.57094e+08,557094,0.0868883,-73.9409,12.0126
1870,5.57102e+08,557102,0.0858186,-73.9405,12.014
1871,5.57111e+08,557111,0.0838927,-73.9405,12.0161
1872,5.57119e+08,557119,0.086502,-73.9408,12.0138
1873,5.57127e+08,557127,0.0858146,-73.9412,12.0157
1874,5.57136e+08,557136,0.0844114,-73.9409,12.0171
1875,5.57144e+08,557144,0.0807239,-73.9401,12.0205
1876,5.57152e+08,557152,0.0825595,-73.9406,12.0184
1877,5.57161e+08,557161,0.0846355,-73.9407,12.0165
1878,5.57169e+08,557169,0.0843806,-73.9408,12.0174
1879,5.57177e+08,557177,0.0832501,-73.941,12.0187
1880,5.57186e+08,557186,0.0821399,-73.9409,12.0196
1881,5.57194e+08,557194,0.0843727,-73.9408,12.0175
1882,5.57202e+08,557202,0.0827719,-73.9407,12.0193
1883,5.57211e+08,557211,0.0796783,-73.9411,12.0225
1884,5.57219e+08,557219,0.0797395,-73.9411,12.0234
1885,5.57227e+08,557227,0.0818778,-73.9413,12.0219
1886,5.57236e+08,557236,0.0831189,-73.9422,12.0208
1887,5.57244e+08,557244,0.0798461,-73.9417,12.0241
1888,5.57252e+08,557252,0.0805714,-73.9417,12.0244
1889,5.57261e+08,557261,0.0832052,-73.9422,12.0218
1890,5.57269e+08,557269,0.0826356,-73.9415,12.0219
1891,5.57277e+08,557277,0.0808505,-73.9416,12.0241
1892,5.57286e+08,557286,0.0798074,-73.942,12.0262
1893,5.57294e+08,557294,0.0809375,-73.9424,12.0241
1894,5.57302e+08,557302,0.0820978,-73.9429,12.0235
1895,5.57311e+08,557311,0.0843863,-73.9435,12.0207
1896,5.57319e+08,557319,0.0855846,-73.9433,12.0189
1897,5.57327e+08,557327,0.0842386,-73.9442,12.0195
1898,5.57336e+08,557336,0.0833905,-73.9443,12.0208
1899,5.57344e+08,557344,0.082199,-73.9437,12.0226
1900,5.57352e+08,557352,0.0812211,-73.9429,12.0234
1901,5.57361e+08,557361,0.0806774,-73.9431,12.0237
1902,5.57369e+08,557369,0.08172,-73.9436,12.0227
1903,5.57377e+08,557377,0.0797455,-73.9435,12.0247
1904,5.57386e+08,557386,0.0747745,-73.9429,12.0297
1905,5.57394e+08,557394,0.0743639,-73.9432,12.0302
1906,5.57402e+08,557402,0.0776061,-73.9425,12.027
1907,5.57411e+08,557411,0.0777073,-73.943,12.0268
1908,5.57419e+08,557419,0.0810898,-73.9426,12.0239
1909,5.57427e+08,557427,0.0817973,-73.9421,12.0232
1910,5.57436e+08,557436,0.0810044,-73.9418,12.0237
1911,5.57444e+08,557444,0.0801188,-73.9422,12.0246
1912,5.57452e+08,557452,0.0779503,-73.9422,12.0269
1913,5.57461e+08,557461,0.0779678,-73.9426,12.0275
1914,5.57469e+08,557469,0.0774604,-73.9433,12.0279
1915,5.57477e+08,557477,0.0793044,-73.9439,12.0256
1916,5.57486e+08,557486,0.0803939,-73.9445,12.0247
1917,5.57494e+08,557494,0.104023,-73.9455,11.9985
1918,5.57502e+08,557502,0.100902,-73.9457,12.0013
1919,5.57511e+08,557511,0.0992824,-73.9465,12.0032
1920,5.57519e+08,557519,0.100163,-73.9465,12.0018
1921,5.57527e+08,557527,0.0988198,-73.9467,12.0032
1922,5.57536e+08,557536,0.0999876,-73.9468,12.0016
1923,5.57544e+08,557544,0.0995475,-73.9468,12.0021
1924,5.57552e+08,557552,0.098357,-73.9468,12.0039
1925,5.57561e+08,557561,0.0985584,-73.9469,12.0037
1926,5.57569e+08,557569,0.093578,-73.9468,12.008
1927,5.57577e+08,557577,0.0932528,-73.9472,12.0086
1928,5.57586e+08,557586,0.0924121,-73.9476,12.0094
1929,5.57594e+08,557594,0.0926115,-73.9477,12.0092
1930,5.57602e+08,557602,0.0934528,-73.9482,12.0085
1931,5.57611e+08,557611,0.0931248,-73.9478,12.009
1932,5.57619e+08,557619,0.0924046,-73.9479,12.011
1933,5.57627e+08,557627,0.0912276,-73.9481,12.0127
1934,5.57636e+08,557636,0.0892683,-73.9463,12.0144
1935,5.57644e+08,557644,0.0901029,-73.9465,12.0136
1936,5.57652e+08,557652,0.0912882,-73.9465,12.0116
1937,5.5766e+08,557660,0.0899962,-73.9471,12.0126
1938,5.57669e+08,557669,0.0873318,-73.9471,12.0151
1939,5.57677e+08,557677,0.0861357,-73.9469,12.0162
1940,5.57685e+08,557685,0.0888918,-73.9472,12.0144
1941,5.57694e+08,557694,0.0901995,-73.9458,12.0127
1942,5.57702e+08,557702,0.0896396,-73.9463,12.0136
1943,5.5771e+08,557710,0.0894479,-73.9462,12.0132
1944,5.57719e+08,557719,0.088713,-73.9461,12.014
1945,5.57727e+08,557727,0.0896424,-73.9462,12.0128
1946,5.57735e+08,557735,0.0917312,-73.9468,12.0109
1947,5.57744e+08,557744,0.0901499,-73.9467,12.0121
1948,5.57752e+08,557752,0.0879397,-73.947,12.0144
1949,5.5776e+08,557760,0.0876035,-73.9468,12.0153
1950,5.57769e+08,557769,0.0874508,-73.9468,12.0148
1951,5.57777e+08,557777,0.0870669,-73.9466,12.0156
1952,5.57785e+08,557785,0.0871774,-73.9468,12.0164
1953,5.57794e+08,557794,0.0859338,-73.9475,12.0171
1954,5.57802e+08,557802,0.0853597,-73.9479,12.0172
1955,5.5781e+08,557810,0.0839392,-73.9481,12.0182
1956,5.57819e+08,557819,0.0835878,-73.9482,12.0188
1957,5.57827e+08,557827,0.0805052,-73.9483,12.0212
1958,5.57835e+08,557835,0.0801722,-73.9481,12.0218
1959,5.57844e+08,557844,0.0773747,-73.9488,12.0243
1960,5.57852e+08,557852,0.0765292,-73.9482,12.0246
1961,5.5786e+08,557860,0.0775932,-73.9483,12.0237
1962,5.57869e+08,557869,0.0768837,-73.9488,12.0243
1963,5.57877e+08,557877,0.0774368,-73.9492,12.0244
1964,5.57885e+08,557885,0.0799499,-73.9494,12.0222
1965,5.57894e+08,557894,0.0835045,-73.9489,12.0182
1966,5.57902e+08,557902,0.083355,-73.9489,12.0178
1967,5.5791e+08,557910,0.0812609,-73.9495,12.0195
1968,5.57919e+08,557919,0.0820459,-73.9495,12.0186
1969,5.57927e+08,557927,0.0824152,-73.9496,12.0177
1970,5.57935e+08,557935,0.0830449,-73.9502,12.017
1971,5.57944e+08,557944,0.0813994,-73.9497,12.0185
1972,5.57952e+08,557952,0.0831054,-73.9496,12.0168
1973,5.5796e+08,557960,0.0829911,-73.9496,12.0167
1974,5.57969e+08,557969,0.0818239,-73.9487,12.0183
1975,5.57977e+08,557977,0.083121,-73.9482,12.0168
1976,5.57985e+08,557985,0.0847499,-73.9478,12.0151
1977,5.57994e+08,557994,0.0811664,-73.9481,12.0184
1978,5.58002e+08,558002,0.081465,-73.9482,12.0171
1979,5.5801e+08,558010,0.0851101,-73.9477,12.0135
1980,5.58019e+08,558019,0.085788,-73.9471,12.0118
1981,5.58027e+08,558027,0.0880726,-73.9465,12.0094
1982,5.58035e+08,558035,0.0908617,-73.9464,12.0063
1983,5.58044e+08,558044,0.0888464,-73.9465,12.0082
1984,5.58052e+08,558052,0.0896074,-73.9471,12.0071
1985,5.5806e+08,558060,0.0867677,-73.9479,12.0093
1986,5.58069e+08,558069,0.0849862,-73.9473,12.0106
1987,5.58077e+08,558077,0.0858208,-73.9478,12.0095
1988,5.58085e+08,558085,0.0857206,-73.9484,12.0089
1989,5.58094e+08,558094,0.0872858,-73.9483,12.0069
1990,5.58102e+08,558102,0.0891203,-73.9481,12.0048
1991,5.5811e+08,558110,0.0883635,-73.9483,12.0062
1992,5.58119e+08,558119,0.0878636,-73.9481,12.0074
1993,5.58127e+08,558127,0.0857877,-73.9479,12.0089
1994,5.58135e+08,558135,0.084318,-73.9474,12.0102
1995,5.58144e+08,558144,0.0853855,-73.9481,12.0093
1996,5.58152e+08,558152,0.0861266,-73.9481,12.0078
1997,5.5816e+08,558160,0.088668,-73.9478,12.006
1998,5.58169e+08,558169,0.0869476,-73.9469,12.0075
1999,5.58177e+08,558177,0.0877023,-73.9471,12.0061
2000,5.58185e+08,558185,0.0886565,-73.9477,12.0057
2001,5.58194e+08,558194,0.0880385,-73.9479,12.007
2002,5.58202e+08,558202,0.089073,-73.9485,12.006
2003,5.5821e+08,558210,0.0899944,-73.9476,12.0049
2004,5.58219e+08,558219,0.0928797,-73.9479,12.0015
2005,5.58227e+08,558227,0.0922282,-73.947,12.0026
2006,5.58235e+08,558235,0.0938835,-73.9468,12.0008
2007,5.58244e+08,558244,0.0931271,-73.9477,12.0015
2008,5.58252e+08,558252,0.0910773,-73.9472,12.0038
2009,5.5826e+08,558260,0.0874423,-73.9476,12.0064
2010,5.58269e+08,558269,0.08658,-73.948,12.0077
2011,5.58277e+08,558277,0.0829962,-73.9479,12.0117
2012,5.58285e+08,558285,0.0855014,-73.9475,12.01
2013,5.58294e+08,558294,0.0863279,-73.9473,12.0088
2014,5.58302e+08,558302,0.0864518,-73.948,12.0087
2015,5.5831e+08,558310,0.0884707,-73.9482,12.0072
2016,5.58319e+08,558319,0.088354,-73.9486,12.0076
2017,5.58327e+08,558327,0.0886394,-73.9491,12.0074
2018,5.58335e+08,558335,0.0854303,-73.9493,12.01
2019,5.58344e+08,558344,0.0852439,-73.9493,12.0104
2020,5.58352e+08,558352,0.0864193,-73.9497,12.0098
2021,5.5836e+08,558360,0.0905792,-73.9492,12.0058
2022,5.58369e+08,558369,0.0925839,-73.949,12.0034
2023,5.58377e+08,558377,0.0920964,-73.948,12.0043
2024,5.58385e+08,558385,0.0902854,-73.9477,12.0059
2025,5.58394e+08,558394,0.0908439,-73.9471,12.0052
2026,5.58402e+08,558402,0.0867757,-73.947,12.0092
2027,5.5841e+08,558410,0.0851884,-73.947,12.0105
2028,5.58419e+08,558419,0.0830536,-73.9471,12.0128
2029,5.58427e+08,558427,0.0799992,-73.9472,12.016
2030,5.58435e+08,558435,0.0828976,-73.9467,12.0135
2031,5.58444e+08,558444,0.081504,-73.9456,12.0148
2032,5.58452e+08,558452,0.0812267,-73.9456,12.0153
2033,5.5846e+08,558460,0.0814432,-73.9454,12.0151
2034,5.58469e+08,558469,0.0807521,-73.9461,12.0164
2035,5.58477e+08,558477,0.082541,-73.9455,12.0144
2036,5.58485e+08,558485,0.0797431,-73.9456,12.0171
2037,5.58494e+08,558494,0.0799237,-73.9453,12.0167
2038,5.58502e+08,558502,0.0779857,-73.9458,12.0184
2039,5.5851e+08,558510,0.0795902,-73.9463,12.0174
2040,5.58519e+08,558519,0.079842,-73.9459,12.0178
2041,5.58527e+08,558527,0.0797782,-73.9461,12.0187
2042,5.58535e+08,558535,0.078428,-73.9465,12.02
2043,5.58544e+08,558544,0.0777548,-73.9466,12.0205
2044,5.58552e+08,558552,0.0779372,-73.9466,12.0209
2045,5.5856e+08,558560,0.0767694,-73.9465,12.0224
2046,5.58569e+08,558569,0.0720789,-73.9459,12.0259
2047,5.58577e+08,558577,0.0717279,-73.9465,12.0259
2048,5.58585e+08,558585,0.0735231,-73.9465,12.0237
2049,5.58594e+08,558594,0.0780001,-73.9466,12.02
2050,5.58602e+08,558602,0.0779408,-73.9461,12.0212
2051,5.5861e+08,558610,0.0784722,-73.9459,12.0207
2052,5.58619e+08,558619,0.0798033,-73.9453,12.0193
2053,5.58627e+08,558627,0.0812054,-73.9457,12.0177
2054,5.58635e+08,558635,0.0819373,-73.9464,12.0164
2055,5.58644e+08,558644,0.0836518,-73.946,12.0154
2056,5.58652e+08,558652,0.0808588,-73.9458,12.0182
2057,5.5866e+08,558660,0.0826365,-73.9457,12.0167
2058,5.58669e+08,558669,0.0839252,-73.946,12.0155
2059,5.58677e+08,558677,0.0836472,-73.946,12.0155
2060,5.58685e+08,558685,0.0828971,-73.9463,12.0157
2061,5.58694e+08,558694,0.0842742,-73.9463,12.0138
2062,5.58702e+08,558702,0.0841169,-73.9463,12.0148
2063,5.5871e+08,558710,0.0855392,-73.9461,12.0138
2064,5.58719e+08,558719,0.0862029,-73.9476,12.0136
2065,5.58727e+08,558727,0.0839231,-73.9477,12.0158
2066,5.58735e+08,558735,0.084238,-73.9486,12.0155
2067,5.58744e+08,558744,0.0874512,-73.949,12.0122
2068,5.58752e+08,558752,0.0900554,-73.9489,12.0099
2069,5.5876e+08,558760,0.0904508,-73.9492,12.009
2070,5.58769e+08,558769,0.090861,-73.9489,12.0082
2071,5.58777e+08,558777,0.0930498,-73.9488,12.0067
2072,5.58785e+08,558785,0.0905161,-73.9487,12.0088
2073,5.58794e+08,558794,0.0896357,-73.9481,12.0106
2074,5.58802e+08,558802,0.0894636,-73.9482,12.0113
2075,5.5881e+08,558810,0.0886067,-73.9482,12.0129
2076,5.58819e+08,558819,0.0898545,-73.9479,12.0119
2077,5.58827e+08,558827,0.0875474,-73.9482,12.0144
2078,5.58835e+08,558835,0.0868739,-73.9484,12.0148
2079,5.58844e+08,558844,0.0854523,-73.9475,12.0169
2080,5.58852e+08,558852,0.0864066,-73.9473,12.016
2081,5.5886e+08,558860,0.0860763,-73.9473,12.0153
2082,5.58869e+08,558869,0.0847841,-73.947,12.0164
2083,5.58877e+08,558877,0.0882969,-73.9474,12.0136
2084,5.58885e+08,558885,0.0889195,-73.9473,12.0125
2085,5.58894e+08,558894,0.084978,-73.9475,12.0164
2086,5.58902e+08,558902,0.0880723,-73.9479,12.0132
2087,5.5891e+08,558910,0.089873,-73.9482,12.011
2088,5.58919e+08,558919,0.0899582,-73.9492,12.0111
2089,5.58927e+08,558927,0.0888741,-73.9497,12.0128
2090,5.58935e+08,558935,0.0860385,-73.9498,12.0162
2091,5.58944e+08,558944,0.0875691,-73.9493,12.0139
2092,5.58952e+08,558952,0.0901603,-73.9497,12.0104
2093,5.5896e+08,558960,0.0894086,-73.9503,12.0107
2094,5.58969e+08,558969,0.0907428,-73.9498,12.0097
2095,5.58977e+08,558977,0.0945846,-73.9496,12.0061
2096,5.58985e+08,558985,0.0949596,-73.9501,12.0056
2097,5.58994e+08,558994,0.0953068,-73.9498,12.0049
2098,5.59002e+08,559002,0.0959349,-73.9497,12.0036
2099,5.5901e+08,559010,0.0956632,-73.9492,12.0037
2100,5.59019e+08,559019,0.0944165,-73.9485,12.0047
2101,5.59027e+08,559027,0.0967167,-73.9477,12.0029
2102,5.59035e+08,559035,0.0979987,-73.9473,12.0017
2103,5.59044e+08,559044,0.0975868,-73.9471,12.0014
2104,5.59052e+08,559052,0.0994137,-73.9475,11.9992
2105,5.5906e+08,559060,0.100057,-73.9479,11.999
2106,5.59069e+08,559069,0.0978883,-73.9484,12.001
2107,5.59077e+08,559077,0.0974177,-73.9477,12.0018
2108,5.59085e+08,559085,0.0962643,-73.9477,12.003
2109,5.59094e+08,559094,0.0948175,-73.9479,12.0041
2110,5.59102e+08,559102,0.0955308,-73.9477,12.0031
2111,5.5911e+08,559110,0.0932625,-73.9479,12.0048
2112,5.59119e+08,559119,0.0943489,-73.9476,12.0035
2113,5.59127e+08,559127,0.091995,-73.9476,12.0056
2114,5.59135e+08,559135,0.092026,-73.9473,12.0059
2115,5.59144e+08,559144,0.0929946,-73.9469,12.0042
2116,5.59152e+08,559152,0.093017,-73.9467,12.0037
2117,5.5916e+08,559160,0.0938098,-73.9466,12.0036
2118,5.59169e+08,559169,0.0931594,-73.9471,12.0041
2119,5.59177e+08,559177,0.0927993,-73.9473,12.0052
2120,5.59185e+08,559185,0.0951765,-73.9475,12.0032
2121,5.59194e+08,559194,0.0961559,-73.9473,12.003
2122,5.59202e+08,559202,0.0970755,-73.9478,12.0016
2123,5.5921e+08,559210,0.098103,-73.948,12.0004
2124,5.59219e+08,559219,0.0988111,-73.9476,11.9995
2125,5.59227e+08,559227,0.0987133,-73.9476,12
2126,5.59235e+08,559235,0.0969246,-73.9476,12.0009
2127,5.59244e+08,559244,0.0979845,-73.9472,11.9993
2128,5.59252e+08,559252,0.0981158,-73.9472,11.999
2129,5.5926e+08,559260,0.100005,-73.9482,11.9975
2130,5.59269e+08,559269,0.100703,-73.9475,11.997
2131,5.59277e+08,559277,0.0986734,-73.9478,11.999
2132,5.59285e+08,559285,0.0984016,-73.9478,11.9997
2133,5.59294e+08,559294,0.0984325,-73.9478,11.9995
2134,5.59302e+08,559302,0.0977251,-73.9486,12.0001
2135,5.5931e+08,559310,0.0978417,-73.9487,11.9997
2136,5.59319e+08,559319,0.10014,-73.9481,11.9977
2137,5.59327e+08,559327,0.102179,-73.9478,11.9953
2138,5.59335e+08,559335,0.0999291,-73.9482,11.997
2139,5.59344e+08,559344,0.100508,-73.9479,11.9964
2140,5.59352e+08,559352,0.101289,-73.9477,11.9957
2141,5.5936e+08,559360,0.100536,-73.9477,11.9961
2142,5.59369e+08,559369,0.101064,-73.9478,11.9958
2143,5.59377e+08,559377,0.100279,-73.9481,11.9964
2144,5.59385e+08,559385,0.103553,-73.9477,11.9932
2145,5.59394e+08,559394,0.103669,-73.948,11.9928
2146,5.59402e+08,559402,0.101395,-73.9476,11.995
2147,5.5941e+08,559410,0.103054,-73.9475,11.9938
2148,5.59419e+08,559419,0.100695,-73.9477,11.9969
2149,5.59427e+08,559427,0.102321,-73.9479,11.995
2150,5.59435e+08,559435,0.101017,-73.9476,11.9956
2151,5.59444e+08,559444,0.0999052,-73.9468,11.9963
2152,5.59452e+08,559452,0.101787,-73.9468,11.9941
2153,5.5946e+08,559460,0.101643,-73.9464,11.9935
2154,5.59469e+08,559469,0.101382,-73.9469,11.9938
2155,5.59477e+08,559477,0.100747,-73.9473,11.9945
2156,5.59485e+08,559485,0.100292,-73.9474,11.9954
2157,5.59494e+08,559494,0.100215,-73.9451,11.9962
2158,5.59502e+08,559502,0.103156,-73.945,11.9938
2159,5.5951e+08,559510,0.104173,-73.9459,11.9935
2160,5.59519e+08,559519,0.102448,-73.9459,11.9953
2161,5.59527e+08,559527,0.103838,-73.9454,11.9941
2162,5.59535e+08,559535,0.104522,-73.9453,11.994
2163,5.59544e+08,559544,0.101825,-73.9453,11.9972
2164,5.59552e+08,559552,0.102486,-73.9452,11.996
2165,5.5956e+08,559560,0.104105,-73.9452,11.9944
2166,5.59569e+08,559569,0.104205,-73.9445,11.9939
2167,5.59577e+08,559577,0.104143,-73.9447,11.993
2168,5.59585e+08,559585,0.103576,-73.9448,11.9942
2169,5.59594e+08,559594,0.10266,-73.9444,11.9958
2170,5.59602e+08,559602,0.100971,-73.9447,11.998
2171,5.5961e+08,559610,0.0988591,-73.9448,12.0001
2172,5.59619e+08,559619,0.098377,-73.9442,12.0005
2173,5.59627e+08,559627,0.0952131,-73.9445,12.0035
2174,5.59635e+08,559635,0.0969804,-73.9443,12.0022
2175,5.59644e+08,559644,0.0971022,-73.9453,12.0016
2176,5.59652e+08,559652,0.0954442,-73.9455,12.0036
2177,5.5966e+08,559660,0.0963797,-73.9455,12.0036
2178,5.59669e+08,559669,0.0942663,-73.9456,12.006
2179,5.59677e+08,559677,0.0916469,-73.9452,12.0083
2180,5.59685e+08,559685,0.0913798,-73.9453,12.0087
2181,5.59694e+08,559694,0.0893627,-73.9445,12.0105
2182,5.59702e+08,559702,0.0905622,-73.9445,12.0096
2183,5.5971e+08,559710,0.0898207,-73.9455,12.0105
2184,5.59719e+08,559719,0.0877006,-73.9451,12.0127
2185,5.59727e+08,559727,0.0873632,-73.9446,12.013
2186,5.59735e+08,559735,0.0854328,-73.9452,12.0146
2187,5.59744e+08,559744,0.0837771,-73.9454,12.0156
2188,5.59752e+08,559752,0.0844562,-73.9448,12.0146
2189,5.5976e+08,559760,0.0854885,-73.9453,12.0133
2190,5.59769e+08,559769,0.0830385,-73.9446,12.0158
2191,5.59777e+08,559777,0.0821312,-73.945,12.0168
2192,5.59785e+08,559785,0.0827603,-73.9445,12.0166
2193,5.59794e+08,559794,0.0782861,-73.9446,12.02
2194,5.59802e+08,559802,0.0791227,-73.944,12.0192
2195,5.5981e+08,559810,0.0780962,-73.9443,12.0197
2196,5.59819e+08,559819,0.0777519,-73.9443,12.0192
2197,5.59827e+08,559827,0.0762048,-73.9449,12.0207
2198,5.59835e+08,559835,0.0754806,-73.9451,12.0212
2199,5.59844e+08,559844,0.0752267,-73.9454,12.0213
2200,5.59852e+08,559852,0.0773894,-73.9451,12.0185
2201,5.5986e+08,559860,0.0797,-73.9453,12.0171
2202,5.59869e+08,559869,0.0814053,-73.9455,12.0164
2203,5.59877e+08,559877,0.08229,-73.9453,12.0154
2204,5.59885e+08,559885,0.0811564,-73.9452,12.0163
2205,5.59894e+08,559894,0.0821403,-73.9443,12.0151
2206,5.59902e+08,559902,0.0823331,-73.944,12.0148
2207,5.5991e+08,559910,0.0823542,-73.9439,12.014
2208,5.59919e+08,559919,0.0817387,-73.944,12.0142
2209,5.59927e+08,559927,0.0792734,-73.9436,12.0166
2210,5.59935e+08,559935,0.0794448,-73.9427,12.0169
2211,5.59944e+08,559944,0.0811346,-73.942,12.0145
2212,5.59952e+08,559952,0.0810949,-73.9414,12.0146
2213,5.5996e+08,559960,0.0792055,-73.9417,12.0148
2214,5.59969e+08,559969,0.0761171,-73.9413,12.0177
2215,5.59977e+08,559977,0.0759967,-73.9416,12.0189
2216,5.59985e+08,559985,0.0747433,-73.9419,12.0203
2217,5.59994e+08,559994,0.0736933,-73.9414,12.0214
2218,5.60002e+08,560002,0.0735764,-73.9415,12.0217
2219,5.6001e+08,560010,0.0739771,-73.9414,12.0219
2220,5.60019e+08,560019,0.0749994,-73.9419,12.0207
2221,5.60027e+08,560027,0.0752626,-73.9407,12.0214
2222,5.60035e+08,560035,0.0751725,-73.9405,12.0208
2223,5.60044e+08,560044,0.0762811,-73.9407,12.0204
2224,5.60052e+08,560052,0.0767625,-73.9403,12.0205
2225,5.6006e+08,560060,0.0770597,-73.9408,12.0201
2226,5.60069e+08,560069,0.0779651,-73.9411,12.0183
2227,5.60077e+08,560077,0.0803753,-73.9404,12.0155
2228,5.60085e+08,560085,0.0793212,-73.9407,12.0162
2229,5.60094e+08,560094,0.0812324,-73.9402,12.0148
2230,5.60102e+08,560102,0.0835406,-73.9405,12.0121
2231,5.6011e+08,560110,0.0836077,-73.9403,12.0113
2232,5.60119e+08,560119,0.0840573,-73.9401,12.0108
2233,5.60127e+08,560127,0.084285,-73.94,12.0101
2234,5.60135e+08,560135,0.086438,-73.9398,12.0075
2235,5.60144e+08,560144,0.0886001,-73.9395,12.0056
2236,5.60152e+08,560152,0.0904369,-73.9394,12.0035
2237,5.6016e+08,560160,0.0920074,-73.9399,12.0027
2238,5.60169e+08,560169,0.092737,-73.9389,12.0027
2239,5.60177e+08,560177,0.0902686,-73.9388,12.0049
2240,5.60185e+08,560185,0.0871569,-73.938,12.0084
2241,5.60194e+08,560194,0.0878951,-73.9375,12.0075
2242,5.60202e+08,560202,0.0897208,-73.937,12.0057
2243,5.6021e+08,560210,0.0893329,-73.9363,12.0057
2244,5.60219e+08,560219,0.0873324,-73.9364,12.0078
2245,5.60227e+08,560227,0.088907,-73.9355,12.0058
2246,5.60235e+08,560235,0.0923227,-73.9355,12.0033
2247,5.60244e+08,560244,0.0916216,-73.9357,12.0046
2248,5.60252e+08,560252,0.0893334,-73.9362,12.0062
2249,5.6026e+08,560260,0.0904164,-73.9356,12.0047
2250,5.60269e+08,560269,0.090898,-73.9351,12.0042
2251,5.60277e+08,560277,0.0897498,-73.9347,12.0054
2252,5.60285e+08,560285,0.0892235,-73.935,12.0055
2253,5.60294e+08,560294,0.0910427,-73.9353,12.0051
2254,5.60302e+08,560302,0.0922963,-73.9347,12.0039
2255,5.6031e+08,560310,0.0926851,-73.9341,12.0026
2256,5.60319e+08,560319,0.0882727,-73.9336,12.0068
2257,5.60327e+08,560327,0.0902963,-73.9339,12.0046
2258,5.60335e+08,560335,0.0893159,-73.9338,12.0056
2259,5.60344e+08,560344,0.08778,-73.9339,12.007
2260,5.60352e+08,560352,0.0872226,-73.9332,12.0081
2261,5.6036e+08,560360,0.0887805,-73.9334,12.0065
2262,5.60369e+08,560369,0.0867301,-73.9334,12.0086
2263,5.60377e+08,560377,0.0848307,-73.9336,12.0097
2264,5.60385e+08,560385,0.0858266,-73.9329,12.0084
2265,5.60394e+08,560394,0.0883663,-73.9324,12.0052
2266,5.60402e+08,560402,0.0895839,-73.932,12.0036
2267,5.6041e+08,560410,0.0899765,-73.9316,12.0031
2268,5.60419e+08,560419,0.0913996,-73.9315,12.0026
2269,5.60427e+08,560427,0.0911503,-73.9316,12.002
2270,5.60435e+08,560435,0.090923,-73.9313,12.0021
2271,5.60444e+08,560444,0.0872629,-73.9306,12.0057
2272,5.60452e+08,560452,0.0855637,-73.9301,12.0069
2273,5.6046e+08,560460,0.0841621,-73.9301,12.0078
2274,5.60469e+08,560469,0.0815021,-73.9308,12.0103
2275,5.60477e+08,560477,0.0820501,-73.9318,12.0097
2276,5.60485e+08,560485,0.0822405,-73.932,12.0091
2277,5.60494e+08,560494,0.0851991,-73.9318,12.0057
2278,5.60502e+08,560502,0.08686,-73.9315,12.0047
2279,5.6051e+08,560510,0.0871563,-73.9315,12.0036
2280,5.60519e+08,560519,0.0852154,-73.9313,12.0052
2281,5.60527e+08,560527,0.0831957,-73.9326,12.0065
2282,5.60535e+08,560535,0.0827605,-73.9326,12.0064
2283,5.60544e+08,560544,0.0814183,-73.9329,12.0085
2284,5.60552e+08,560552,0.0812913,-73.9325,12.008
2285,5.6056e+08,560560,0.0806056,-73.9323,12.0077
2286,5.60569e+08,560569,0.0833891,-73.9319,12.0045
2287,5.60577e+08,560577,0.0813412,-73.9313,12.0063
2288,5.60585e+08,560585,0.0805717,-73.9313,12.0077
2289,5.60594e+08,560594,0.0790204,-73.9317,12.0091
2290,5.60602e+08,560602,0.0764296,-73.9314,12.0118
2291,5.6061e+08,560610,0.0744757,-73.9315,12.0133
2292,5.60619e+08,560619,0.0774502,-73.9316,12.0107
2293,5.60627e+08,560627,0.0786069,-73.9326,12.0104
2294,5.60635e+08,560635,0.0801225,-73.9315,12.0086
2295,5.60644e+08,560644,0.082376,-73.9316,12.007
2296,5.60652e+08,560652,0.0817294,-73.9312,12.0069
2297,5.6066e+08,560660,0.08362,-73.9314,12.005
2298,5.60669e+08,560669,0.0843651,-73.9316,12.004
2299,5.60677e+08,560677,0.0848384,-73.9309,12.0034
2300,5.60685e+08,560685,0.0820698,-73.9308,12.0063
2301,5.60694e+08,560694,0.0847247,-73.9307,12.004
2302,5.60702e+08,560702,0.0849301,-73.9316,12.0036
2303,5.6071e+08,560710,0.0872822,-73.9316,12.0014
2304,5.60719e+08,560719,0.0880709,-73.9317,12.0003
2305,5.60727e+08,560727,0.0851183,-73.9321,12.0037
2306,5.60735e+08,560735,0.0858839,-73.9323,12.0028
2307,5.60744e+08,560744,0.0849293,-73.932,12.0035
2308,5.60752e+08,560752,0.0835891,-73.9314,12.0047
2309,5.6076e+08,560760,0.0843972,-73.9311,12.0044
2310,5.60769e+08,560769,0.0837474,-73.9313,12.0054
2311,5.60777e+08,560777,0.0835403,-73.9309,12.0051
2312,5.60785e+08,560785,0.0820672,-73.9309,12.0062
2313,5.60794e+08,560794,0.0819711,-73.9315,12.0059
2314,5.60802e+08,560802,0.0804855,-73.9317,12.0073
2315,5.6081e+08,560810,0.0801767,-73.931,12.0073
2316,5.60819e+08,560819,0.0785546,-73.9311,12.0086
2317,5.60827e+08,560827,0.0761206,-73.931,12.0096
2318,5.60835e+08,560835,0.0775435,-73.9309,12.0077
2319,5.60844e+08,560844,0.0735863,-73.9312,12.0111
2320,5.60852e+08,560852,0.0732319,-73.9317,12.0113
2321,5.6086e+08,560860,0.0724001,-73.9319,12.0123
2322,5.60869e+08,560869,0.072719,-73.9314,12.0129
2323,5.60877e+08,560877,0.0724108,-73.9315,12.0136
2324,5.60885e+08,560885,0.0695426,-73.932,12.0161
2325,5.60894e+08,560894,0.069612,-73.9324,12.0163
2326,5.60902e+08,560902,0.0702149,-73.9323,12.015
2327,5.6091e+08,560910,0.0700382,-73.9328,12.0154
2328,5.60919e+08,560919,0.0700386,-73.9333,12.0151
2329,5.60927e+08,560927,0.0720969,-73.9334,12.0129
2330,5.60935e+08,560935,0.0729952,-73.9329,12.0114
2331,5.60944e+08,560944,0.0719244,-73.9335,12.0123
2332,5.60952e+08,560952,0.0749216,-73.9335,12.0088
2333,5.6096e+08,560960,0.0755658,-73.9338,12.0082
2334,5.60969e+08,560969,0.0746163,-73.9339,12.0096
2335,5.60977e+08,560977,0.0748678,-73.935,12.0092
2336,5.60985e+08,560985,0.0773174,-73.9343,12.0072
2337,5.60994e+08,560994,0.0777565,-73.9335,12.0072
2338,5.61002e+08,561002,0.079797,-73.9338,12.0051
2339,5.6101e+08,561010,0.0794464,-73.9333,12.0058
2340,5.61019e+08,561019,0.0771219,-73.9333,12.0088
2341,5.61027e+08,561027,0.0789119,-73.9341,12.0068
2342,5.61035e+08,561035,0.0788568,-73.9336,12.0067
2343,5.61044e+08,561044,0.0770677,-73.9333,12.0092
2344,5.61052e+08,561052,0.0752503,-73.9336,12.0115
2345,5.6106e+08,561060,0.073295,-73.933,12.014
2346,5.61069e+08,561069,0.0762008,-73.9333,12.0114
2347,5.61077e+08,561077,0.0760199,-73.9325,12.0109
2348,5.61085e+08,561085,0.0762736,-73.9323,12.011
2349,5.61094e+08,561094,0.0767869,-73.9329,12.0099
2350,5.61102e+08,561102,0.0737006,-73.9319,12.0124
2351,5.6111e+08,561110,0.0748817,-73.9315,12.0114
2352,5.61119e+08,561119,0.0743763,-73.932,12.0114
2353,5.61127e+08,561127,0.0722542,-73.9317,12.0134
2354,5.61135e+08,561135,0.0719281,-73.9315,12.0133
2355,5.61144e+08,561144,0.0710849,-73.9312,12.0141
2356,5.61152e+08,561152,0.0717023,-73.9314,12.0138
2357,5.6116e+08,561160,0.0751759,-73.9318,12.0097
2358,5.61169e+08,561169,0.0745316,-73.9318,12.0098
2359,5.61177e+08,561177,0.07615,-73.9319,12.0081
2360,5.61185e+08,561185,0.0728289,-73.9322,12.0116
2361,5.61194e+08,561194,0.0715782,-73.933,12.0134
2362,5.61202e+08,561202,0.0701574,-73.9333,12.0143
2363,5.6121e+08,561210,0.0702427,-73.9334,12.014
2364,5.61219e+08,561219,0.0734148,-73.9336,12.0113
2365,5.61227e+08,561227,0.0743667,-73.9336,12.0101
2366,5.61235e+08,561235,0.0744301,-73.934,12.0095
2367,5.61244e+08,561244,0.0765831,-73.9343,12.0081
2368,5.61252e+08,561252,0.0740321,-73.9353,12.0102
2369,5.6126e+08,561260,0.0759108,-73.9346,12.0077
2370,5.61269e+08,561269,0.0764507,-73.9343,12.0071
2371,5.61277e+08,561277,0.0778145,-73.9349,12.0063
2372,5.61285e+08,561285,0.0775796,-73.9359,12.0069
2373,5.61294e+08,561294,0.0774091,-73.9357,12.0075
