timestamp_ms,acc_x,acc_y,acc_z,gyr_x,gyr_y,gyr_z,mag_x,mag_y,mag_z
0,-3.27431e+36,0,0,0,0,0,0,0,0.396729
1,-3.27695e+36,-0.0159865,-0.0340758,10.0053,-0.242618,-0.49018,-6.26221,-4.10229,0.39209
2,-3.27959e+36,-0.00062945,-0.0673798,9.96498,-0.13117,-0.406575,-4.69165,-4.09985,0.397217
3,-3.28224e+36,0.0182612,-0.0382677,9.98146,-0.150842,-0.231168,-2.11572,-4.13525,0.39502
4,-3.28488e+36,0.00944883,-0.0384897,9.97596,-0.145899,-0.406575,6.2854,-4.10962,0.393066
5,-3.28752e+36,0.0136905,-0.025879,9.97596,-0.091827,-0.354091,-6.99292,-4.10474,0.394043
6,-3.29016e+36,-0.00224613,-0.0644905,9.99428,-0.103302,-0.318052,1.18091,-4.09766,0.393555
7,-3.2928e+36,-0.00545762,-0.0573086,9.97231,-0.0164187,-0.270486,6.12964,-4.11084,0.39624
8,-3.29544e+36,-0.00323308,-0.0683096,9.95216,-0.250866,-0.314773,4.75195,-4.10059,0.391113
9,-3.29808e+36,0.0136691,-0.0594973,9.93017,-0.20663,-0.2033,4.19873,-4.08716,0.394775
10,-3.30072e+36,-0.0226173,-0.054333,9.96865,-0.222998,-0.306602,-3.22925,-4.09497,0.394043
11,-3.30336e+36,0.00895536,-0.0692896,9.96679,-0.224611,-0.257423,-3.87891,-4.11914,0.391602
12,-3.306e+36,-0.00347619,-0.0531598,9.99427,-0.250789,-0.372175,0.531494,-4.12183,0.396729
13,-3.30864e+36,0.0080611,-0.0626663,9.9906,-0.249201,-0.331166,-5.53052,-4.09985,0.391113
14,-3.31128e+36,0.00487124,-0.0593612,9.97961,-0.21311,-0.31316,5.25317,-4.12231,0.397705
15,-3.31393e+36,-0.00198849,-0.0633456,9.98877,-0.152456,-0.298406,-4.03467,-4.12036,0.395508
16,-3.31657e+36,0.0222313,-0.0781944,9.97409,-0.219719,-0.329527,6.47852,-4.09692,0.393555
17,-3.31921e+36,-0.00477095,-0.051057,9.96498,-0.150817,-0.321356,1.10693,-4.12061,0.394775
18,-3.32185e+36,-0.0262652,-0.0458068,9.98515,-0.129531,-0.222972,4.10229,-4.12476,0.391602
19,-3.32449e+36,0.00340485,-0.0624728,10.0107,-0.131145,-0.208244,0.111572,-4.15308,0.39624
20,-3.32713e+36,0.00366244,-0.057151,9.97412,-0.277018,-0.329578,6.2146,-4.12695,0.394531
21,-3.32977e+36,0.00414884,-0.0593827,9.9851,-0.245922,-0.219745,-0.727783,-4.12207,0.393799
22,-3.33241e+36,0.00624473,-0.0542252,9.94481,-0.191876,-0.298355,-5.03003,-4.09033,0.393311
23,-3.33505e+36,0.0140553,-0.0600195,9.98875,-0.144311,-0.436031,7.24341,-4.08862,0.392578
24,-3.33769e+36,-0.00180252,-0.0529096,9.97412,-0.172205,-0.21475,5.90283,-4.09814,0.396729
25,-3.34033e+36,0.00399129,-0.0458283,9.96679,-0.195052,-0.3607,-0.0441895,-4.12329,0.392578
26,-3.34297e+36,0.0100641,-0.0516218,10.0071,-0.0721297,-0.319666,4.0918,-4.11694,0.398193
27,-3.34562e+36,-0.00778945,-0.0407497,10.0053,-0.190237,-0.198382,-6.52612,-4.10107,0.396973
28,-3.34826e+36,0.00892675,-0.0501343,9.96678,-0.250943,-0.193464,0.901855,-4.09326,0.394531
29,-3.3509e+36,0.01839,-0.0413649,9.98874,-0.172179,-0.237726,-4.41724,-4.10889,0.396973
30,-3.35354e+36,0.0132543,-0.0544401,9.98874,-0.167184,-0.386903,-2.427,-4.10645,0.392578
31,-3.35618e+36,0.0211295,-0.0565003,9.97957,-0.203275,-0.327913,-6.71875,-4.11377,0.399658
32,-3.35882e+36,-0.00215301,-0.065985,9.99792,-0.227941,-0.308242,4.90747,-4.09937,0.394531
33,-3.36146e+36,0.00927008,-0.0626374,9.99057,-0.0983843,-0.277044,-7.18652,-4.11743,0.394287
34,-3.3641e+36,0.00786082,-0.0646261,9.99973,-0.201635,-0.25417,-5.02979,-4.12158,0.395996
35,-3.36674e+36,-0.0119739,-0.0520942,9.97048,-0.154095,-0.290209,1.68188,-4.11938,0.393066
36,-3.36938e+36,-0.00237474,-0.0468225,9.98694,-0.160704,-0.218054,5.29028,-4.11084,0.397217
37,-3.37202e+36,0.00707433,-0.0470369,9.9741,-0.270512,-0.341028,3.91309,-4.10059,0.394531
38,-3.37466e+36,0.00756067,-0.0327812,9.97777,-0.165596,-0.431113,-6.69263,-4.09448,0.398682
39,-3.37731e+36,0.0228462,-0.0549696,9.97407,-0.224586,-0.411518,-1.69556,-4.104,0.396973
40,-3.37995e+36,0.0253068,-0.0553129,9.98871,-0.149203,-0.399966,-2.12622,-4.09619,0.395996
41,-3.38259e+36,0.00756045,-0.0445553,9.98143,-0.23268,-0.445995,3.82837,-4.11572,0.395264
42,-3.38523e+36,0.00642325,-0.0723796,9.99055,-0.0951313,-0.367154,5.93677,-4.09229,0.393555
43,-3.38787e+36,-0.0022603,-0.0450415,9.97412,-0.103302,-0.334419,-2.31934,-4.10889,0.395264
44,-3.39051e+36,-0.00721722,-0.0543688,9.99427,-0.12802,-0.322842,1.04736,-4.08423,0.394043
45,-3.39315e+36,-0.0250993,-0.0545619,9.97416,-0.242695,-0.321356,6.46338,-4.09375,0.395264
46,-3.39579e+36,-0.00631596,-0.0585389,9.97228,-0.132784,-0.337698,-2.73877,-4.10889,0.395508
47,-3.39843e+36,0.00517169,-0.0514144,9.98509,-0.191851,-0.244309,-6.98291,-4.11255,0.393066
48,-3.40107e+36,0.0293836,-0.0571659,9.99967,-0.160832,-0.221281,-3.03442,-4.0918,0.397217
49,-3.40371e+36,0.00949915,-0.0610634,9.97041,-0.16721,-0.357395,7.69995,-4.1084,0.394043
50,-3.40635e+36,0.0100855,-0.0613428,9.99971,-0.272177,-0.295178,1.92285,-4.10303,0.397705
51,-3.409e+36,-0.0132682,-0.0489751,10.0144,-0.121437,-0.178659,-2.11572,-4.104,0.39502
52,-3.41164e+36,0.0179822,-0.038046,9.96676,-0.227992,-0.142723,6.76318,-4.11377,0.397461
53,-3.41428e+36,-0.0183757,-0.0329818,9.9925,-0.167158,-0.282064,4.10229,-4.12476,0.396973
54,-3.41692e+36,-0.0124388,-0.0698189,9.98143,-0.155965,-0.167158,2.2627,-4.09082,0.39209
55,-3.41956e+36,-0.0103502,-0.0444406,10.0035,-0.242849,-0.214775,2.78418,-4.08838,0.397705
56,-3.4222e+36,0.0136551,-0.0392044,9.96676,-0.242746,-0.241056,-2.64355,-4.10156,0.393066
57,-3.42484e+36,0.0214299,-0.0579023,9.99053,-0.167261,-0.231168,4.13965,-4.11328,0.393311
58,-3.42748e+36,0.0234828,-0.0525662,9.94841,-0.175406,-0.304937,-5.14819,-4.11133,0.394775
59,-3.43012e+36,-0.0125749,-0.0529671,9.99063,-0.188418,-0.377118,3.09692,-4.11816,0.39502
60,-3.43276e+36,0.0191051,-0.0733097,9.97953,-0.28022,-0.409981,-7.13818,-4.11377,0.396729
61,-3.4354e+36,-0.000522158,-0.0554059,9.96129,-0.185396,-0.252454,7.20947,-4.09448,0.392578
62,-3.43804e+36,-0.00371233,-0.0648977,9.99241,-0.114777,-0.259011,0.101318,-4.11401,0.39917
63,-3.44069e+36,0.00201003,-0.0576445,9.94664,-0.136037,-0.411441,-7.73486,-4.09937,0.396484
64,-3.44333e+36,0.0302207,-0.0560357,9.99965,-0.124511,-0.339337,-5.19604,-4.11499,0.393555
65,-3.44597e+36,0.00312579,-0.059855,9.95212,-0.203326,-0.388517,-7.54639,-4.09131,0.395996
66,-3.44861e+36,0.0146705,-0.0253783,9.97412,-0.18701,-0.273765,-3.64868,-4.09497,0.39209
67,-3.45125e+36,0.0023391,-0.0513356,9.98692,-0.108246,-0.285189,-5.73413,-4.10474,0.395752
68,-3.45389e+36,0.00635172,-0.0404708,9.97229,-0.154275,-0.20161,4.90747,-4.09937,0.393555
69,-3.45653e+36,0.00488539,-0.0572013,9.98508,-0.152558,-0.262264,-0.545166,-4.10156,0.393311
70,-3.45917e+36,-0.00401274,-0.0482316,9.95399,-0.141032,-0.308165,-4.84741,-4.10107,0.395508
71,-3.46181e+36,-0.0235545,-0.0375958,10.0072,-0.127994,-0.299917,4.94165,-4.09351,0.394531
72,-3.46445e+36,0.0134974,-0.0504919,9.99605,-0.206681,-0.259037,-0.65332,-4.09912,0.399658
73,-3.46709e+36,0.00837598,-0.0581168,9.98873,-0.175381,-0.398327,-1.70654,-4.09619,0.39209
74,-3.46973e+36,-0.000300541,-0.0473592,9.96497,-0.190186,-0.360648,-4.11597,-4.09863,0.396729
75,-3.47238e+36,0.00760358,-0.0549694,9.97592,-0.193362,-0.388568,3.70972,-4.10547,0.396484
76,-3.47502e+36,-0.0100211,-0.0955906,9.98322,-0.1887,-0.2377,-4.06885,-4.09497,0.395508
77,-3.47766e+36,-0.0152642,-0.0464506,9.98883,-0.203172,-0.321433,0.687012,-4.12061,0.396484
78,-3.4803e+36,-0.0185616,-0.0503417,9.95955,-0.103302,-0.201635,0.375488,-4.12305,0.392578
79,-3.48294e+36,-0.0235829,-0.0707272,9.99432,-0.124434,-0.201789,-4.45435,-4.18286,0.395752
80,-3.48558e+36,0.00225284,-0.0525021,9.98144,-0.2575,-0.224714,5.96045,-4.10229,0.393066
81,-3.48822e+36,0.0190695,-0.0583314,9.97953,-0.260881,-0.20663,7.99829,-4.09619,0.397217
82,-3.49086e+36,0.0321447,-0.0495123,9.97585,-0.172102,-0.301659,-4.72876,-4.11133,0.396973
83,-3.4935e+36,0.0160867,-0.0424736,9.97408,-0.237803,-0.295127,5.37573,-4.0957,0.39502
84,-3.49614e+36,0.0148205,-0.0483894,10.007,-0.146052,-0.301556,0.165527,-4.0918,0.396729
85,-3.49878e+36,-0.00499278,-0.065041,9.96679,-0.170386,-0.39346,-1.16797,-4.10645,0.392578
86,-3.50142e+36,-0.0153358,-0.0671869,9.98148,-0.11634,-0.29838,4.35571,-4.11816,0.398193
87,-3.50407e+36,-0.0130039,-0.0856839,9.98875,-0.121463,-0.283498,4.58594,-4.09399,0.397949
88,-3.50671e+36,0.0020028,-0.0802907,9.97588,-0.247792,-0.267233,-7.70898,-4.08765,0.392578
89,-3.50935e+36,-0.0123458,-0.0477452,9.97786,-0.211369,-0.252659,-5.47314,-4.13525,0.396973
90,-3.51199e+36,-0.00280362,-0.0407207,9.98699,-0.208372,-0.267208,-4.2395,-4.09302,0.395996
91,-3.51463e+36,0.00117307,-0.0519225,9.96131,-0.175201,-0.436108,4.23706,-4.10791,0.398193
92,-3.51727e+36,0.0311792,-0.0411861,9.98868,-0.15407,-0.221409,3.68262,-4.12476,0.39209
93,-3.51991e+36,0.0150712,-0.0597546,9.98686,-0.216415,-0.35906,1.75708,-4.09644,0.39624
94,-3.52255e+36,0.0155857,-0.0582389,9.98503,-0.188777,-0.290081,6.19409,-4.08862,0.396484
95,-3.52519e+36,-0.00972094,-0.0493906,9.9687,-0.195232,-0.223023,-4.78931,-4.10522,0.394043
96,-3.52783e+36,0.00520727,-0.0368085,9.96867,-0.188726,-0.322867,-6.23975,-4.08765,0.398682
97,-3.53047e+36,-0.0106649,-0.0481744,9.99068,-0.234473,-0.318103,-2.22388,-4.10156,0.391602
98,-3.53311e+36,0.000665214,-0.063038,9.9558,-0.159141,-0.327785,6.09253,-4.09106,0.398682
99,-3.53576e+36,-0.00422733,-0.0597048,9.98513,-0.268975,-0.314825,5.9895,-4.09253,0.395508
100,-3.5384e+36,0.0127821,-0.0674012,9.99419,-0.175406,-0.321331,3.55396,-4.10669,0.396973
101,-3.54104e+36,0.0242123,-0.0676089,9.99047,-0.176994,-0.375402,-4.5835,-4.10229,0.395508
102,-3.54368e+36,-0.0136908,-0.0734601,9.98515,-0.18683,-0.360674,-6.57373,-4.10474,0.392578
103,-3.54632e+36,-0.0334537,-0.0426378,9.97616,-0.123076,-0.250738,-5.57861,-4.10352,0.397217
104,-3.54896e+36,-0.0129394,-0.0555559,9.96871,-0.0915709,-0.360623,5.14771,-4.12183,0.393066
105,-3.5516e+36,0.00226745,-0.0501629,9.97781,-0.247587,-0.331269,-7.78516,-4.10107,0.395752
106,-3.55424e+36,0.0247345,-0.0541256,9.97952,-0.227941,-0.381985,-7.96631,-4.09131,0.394043
107,-3.55688e+36,0.0179749,-0.0563145,9.97955,-0.252377,-0.257628,-4.24072,-4.12329,0.394043
108,-3.55952e+36,0.014549,-0.0511355,9.95578,-0.142492,-0.272202,5.78101,-4.12476,0.395752
109,-3.56216e+36,0.0186687,-0.0440546,9.97408,-0.260855,-0.298406,-4.50342,-4.0918,0.390625
110,-3.5648e+36,-0.00283996,-0.050006,9.97601,-0.214827,-0.329553,0.761719,-4.09766,0.399414
111,-3.56745e+36,-0.00435642,-0.0410863,9.94858,-0.22976,-0.255784,0.638184,-4.09204,0.394043
112,-3.57009e+36,-0.016702,-0.065277,9.95224,-0.216184,-0.391898,6.54956,-4.11084,0.39502
113,-3.57273e+36,-0.00140911,-0.0692324,9.96497,-0.168926,-0.324532,2.02002,-4.09766,0.396484
114,-3.57537e+36,-0.00272523,-0.0585603,9.98148,-0.178403,-0.447558,4.9209,-4.10913,0.393066
115,-3.57801e+36,-0.00382677,-0.062523,9.99247,-0.123204,-0.250661,-2.98047,-4.09302,0.396729
116,-3.58065e+36,0.0183041,-0.0533602,9.95942,-0.232731,-0.329655,-5.67627,-4.10889,0.392578
117,-3.58329e+36,0.0279032,-0.0298846,9.9686,-0.167107,-0.444176,-1.30151,-4.09302,0.395264
118,-3.58593e+36,-0.00257502,-0.0503489,9.95588,-0.306474,-0.357626,-1.32642,-4.10571,0.398438
119,-3.58857e+36,7.15284e-06,-0.0710206,9.9851,-0.260625,-0.290389,-4.93457,-4.11426,0.391602
120,-3.59121e+36,-0.00516435,-0.0549052,9.97786,-0.157528,-0.380141,6.08716,-4.08716,0.395752
121,-3.59385e+36,-0.000822577,-0.0625015,9.9943,-0.160755,-0.301556,7.16235,-4.09814,0.39502
122,-3.59649e+36,-0.0207075,-0.062709,9.96328,-0.213238,-0.355705,2.89209,-4.09082,0.399658
123,-3.59914e+36,-0.00712423,-0.0649407,10.0053,-0.227992,-0.227992,2.24463,-4.1084,0.394531
124,-3.60178e+36,0.0149995,-0.0632526,9.97407,-0.219847,-0.270538,4.38037,-4.09692,0.393066
125,-3.60442e+36,0.000865749,-0.0655269,9.99429,-0.298252,-0.311802,2.5188,-4.11743,0.394287
126,-3.60706e+36,0.025271,-0.0787603,10.0106,-0.00840147,-0.260266,3.74927,-4.09595,0.39209
127,-3.6097e+36,-0.0148994,-0.0550125,9.97976,-0.200022,-0.372098,4.94165,-4.09351,0.398193
128,-3.61234e+36,-0.00525734,-0.053396,9.9724,-0.144157,-0.329502,2.51099,-4.11157,0.391602
129,-3.61498e+36,0.0062729,-0.0536037,9.98331,-0.149049,-0.334445,-3.20605,-4.11255,0.395264
130,-3.61762e+36,0.00120903,-0.0538178,9.9742,-0.22789,-0.247741,-0.368652,-4.11597,0.396484
131,-3.62026e+36,-0.0184686,-0.0560997,9.98895,-0.0936712,-0.389772,-6.66357,-4.08472,0.391602
132,-3.6229e+36,0.00746757,-0.0413649,9.95588,-0.127917,-0.34902,0.967285,-4.09473,0.397705
133,-3.62554e+36,0.0136834,-0.0471372,9.98696,-0.198152,-0.350966,-7.60596,-4.11743,0.391602
134,-3.62818e+36,0.015958,-0.0364151,9.98334,-0.198331,-0.341028,-6.26172,-4.10229,0.398682
135,-3.63083e+36,0.00570082,-0.0661066,9.99977,-0.214852,-0.265671,-5.62842,-4.10522,0.393066
136,-3.63347e+36,0.000522158,-0.0499698,9.99986,-0.304937,-0.241363,5.87378,-4.11548,0.39502
137,-3.63611e+36,-0.000951328,-0.0632097,9.99249,-0.193183,-0.368973,-5.771,-4.11621,0.39502
138,-3.63875e+36,-0.00614421,-0.0378025,9.97248,-0.111217,-0.340977,5.56714,-4.12183,0.391602
139,-3.64139e+36,-0.00746757,-0.0452846,9.97064,-0.128199,-0.219514,-2.80957,-4.09497,0.397705
140,-3.64403e+36,0.00752479,-0.0344695,9.98156,-0.260599,-0.244565,-5.18848,-4.12085,0.390625
141,-3.64667e+36,0.0096921,-0.0439542,9.97236,-0.288288,-0.31024,4.78296,-4.12402,0.395752
142,-3.64931e+36,0.0192911,-0.0333826,9.97784,-0.100254,-0.247331,-1.44214,-4.09741,0.396973
143,-3.65195e+36,0.00876939,-0.0390974,9.9907,-0.10156,-0.365387,5.33008,-4.10132,0.395508
144,-3.65459e+36,0.0276244,-0.0464718,9.98689,-0.181912,-0.380295,-7.15942,-4.09814,0.39917
145,-3.65723e+36,-0.00841174,-0.0670078,9.97789,-0.204863,-0.291951,-7.40234,-4.11255,0.392578
146,-3.65987e+36,-0.0116734,-0.0764496,9.96872,-0.216696,-0.286854,4.77954,-4.08984,0.396729
147,-3.66252e+36,-0.0167877,-0.054848,9.97618,-0.192004,-0.254119,-3.06323,-4.10156,0.397461
148,-3.66516e+36,-0.0124245,-0.0735598,10.0127,-0.242388,-0.347816,5.87646,-4.11743,0.39209
149,-3.6678e+36,-0.00849042,-0.05733,9.99077,-0.249355,-0.280425,-3.01562,-4.0979,0.398193
150,-3.67044e+36,0.015715,-0.055749,9.99061,-0.164059,-0.252454,2.03101,-4.10547,0.391113
151,-3.67308e+36,0.0233254,-0.0412934,9.98879,-0.139777,-0.253863,-1.25464,-4.08936,0.397705
152,-3.67572e+36,0.0147563,-0.0544546,10.0108,-0.252454,-0.260907,-6.61353,-4.11426,0.39209
153,-3.67836e+36,0.0110798,-0.0345196,9.96876,-0.231117,-0.228146,-4.92432,-4.12207,0.394287
154,-3.681e+36,0.00223884,-0.0476594,9.95778,-0.255733,-0.27566,5.81567,-4.11133,0.393311
155,-3.68364e+36,-0.0172455,-0.072022,9.97795,-0.267233,-0.365694,5.53076,-4.09448,0.392578
156,-3.68628e+36,0.0051282,-0.0667434,9.96134,-0.282576,-0.124741,6.73682,-4.09424,0.39624
157,-3.68892e+36,-0.0146421,-0.0527667,9.99818,-0.282141,-0.164315,-3.51221,-4.1189,0.39209
158,-3.69156e+36,-0.021609,-0.0605778,10.0092,-0.173998,-0.254016,-0.652832,-4.09912,0.395752
159,-3.69421e+36,0.00213886,-0.0513212,9.95593,-0.150637,-0.373737,1.19409,-4.10742,0.39502
160,-3.69685e+36,0.0212084,-0.0607201,9.97957,-0.163982,-0.303221,0.978027,-4.10254,0.395996
161,-3.69949e+36,0.0124173,-0.0390474,9.98523,-0.173921,-0.332703,-7.70239,-4.09253,0.39502
162,-3.70213e+36,0.0165588,-0.0465865,9.97968,-0.213469,-0.218054,-2.85962,-4.09668,0.392578
163,-3.70477e+36,0.0114374,-0.0578951,9.97784,-0.0675704,-0.19641,-6.89551,-4.09937,0.397705
164,-3.70741e+36,-0.0103289,-0.0489401,9.97437,-0.16032,-0.38365,3.03882,-4.11401,0.393555
165,-3.71005e+36,0.00489254,-0.0564002,9.97057,-0.259395,-0.322893,0.734863,-4.08569,0.391846
166,-3.71269e+36,-0.0166089,-0.0386468,9.98363,-0.154531,-0.167133,1.23901,-4.10181,0.395752
167,-3.71533e+36,0.0148205,-0.0533463,9.98151,-0.116801,-0.263596,2.15601,-4.08936,0.393066
168,-3.71797e+36,0.00766785,-0.0497695,9.95593,-0.20161,-0.350838,1.44482,-4.09888,0.398682
169,-3.72061e+36,0.0103573,-0.0612212,9.99432,-0.208269,-0.226404,-5.35425,-4.11426,0.391113
170,-3.72325e+36,-0.0276243,-0.0563286,10.0166,-0.186625,-0.475349,7.66943,-4.09351,0.39917
171,-3.7259e+36,0.0043702,-0.0839245,10.0199,-0.285394,-0.303503,-4.53857,-4.09668,0.393555
172,-3.72854e+36,0.00633027,-0.076843,9.98513,-0.135807,-0.280425,-3.07104,-4.12695,0.393555
173,-3.73118e+36,0.00259648,-0.0603342,9.93396,-0.12989,-0.263673,-1.98511,-4.0918,0.395264
174,-3.73382e+36,-0.000500699,-0.0533459,9.9615,-0.252659,-0.26083,-0.703613,-4.10083,0.39209
175,-3.73646e+36,-0.0037624,-0.0501057,9.96704,-0.175458,-0.32945,2.70435,-4.09888,0.397705
176,-3.7391e+36,0.0132041,-0.0539253,9.96505,-0.256245,-0.147769,3.96826,-4.10278,0.393555
177,-3.74174e+36,0.0390331,-0.0322307,9.97778,-0.298585,-0.259293,-3.06519,-4.09961,0.396729
178,-3.74438e+36,0.0140267,-0.0475664,9.99988,-0.271921,-0.349506,1.93311,-4.11084,0.396729
179,-3.74702e+36,-0.0020028,-0.0680808,9.97793,-0.283498,-0.393665,-5.90259,-4.09619,0.393066
180,-3.74966e+36,0.00785382,-0.0593972,9.99987,-0.272126,-0.238084,-4.14575,-4.11597,0.39917
181,-3.7523e+36,-0.0119027,-0.0763496,9.99262,-0.256424,-0.126355,7.15649,-4.09424,0.393555
182,-3.75494e+36,-0.00640179,-0.0729375,9.97428,-0.237444,-0.301992,-7.96753,-4.12158,0.397705
183,-3.75759e+36,-0.00622297,-0.0439113,9.96162,-0.354655,-0.152891,0.39502,-4.0979,0.395508
184,-3.76023e+36,-0.0163514,-0.061307,10.0275,-0.19664,-0.321382,-3.00269,-4.10767,0.39502
185,-3.76287e+36,0.000458015,-0.0687172,10.0054,-0.257423,-0.226558,6.71265,-4.11548,0.397705
186,-3.76551e+36,0.0129252,-0.0321091,9.94871,-0.313493,-0.133245,-5.25122,-4.11279,0.393555
187,-3.76815e+36,0.00979249,-0.0419155,9.98349,-0.361186,-0.179069,2.12061,-4.09424,0.396729
188,-3.77079e+36,0.00110869,-0.0444549,10.0073,-0.256373,-0.12802,-0.130615,-4.09766,0.391602
189,-3.77343e+36,-0.00432032,-0.0684885,9.97613,-0.30148,-0.289005,6.29321,-4.11548,0.393799
190,-3.77607e+36,0.00342621,-0.0506421,9.98899,-0.27397,-0.234703,-5.36743,-4.10449,0.39624
191,-3.77871e+36,-0.00909842,-0.0601983,9.97623,-0.400632,-0.0956948,-3.21631,-4.10474,0.394043
192,-3.78135e+36,-0.0124245,-0.0700478,9.99269,-0.359547,-0.21183,5.41138,-4.0918,0.398682
193,-3.78399e+36,-0.0079538,-0.0800043,10.0457,-0.229632,-0.33278,1.53174,-4.09326,0.393555
194,-3.78663e+36,-0.00192415,-0.0803332,10.0511,0.0311853,-0.320665,-1.48511,-4.10498,0.39624
195,-3.78928e+36,0.0398342,-0.0576159,9.97033,-0.0589896,-0.38803,-4.39771,-4.09229,0.39502
196,-3.79192e+36,0.0235257,-0.0301778,9.94317,-0.0919807,-0.355244,-2.5647,-4.09009,0.395996
197,-3.79456e+36,-0.00333339,-0.0378317,9.94885,-0.167107,-0.296741,-3.46997,-4.11133,0.395508
198,-3.7972e+36,-0.0319086,-0.0238616,9.99314,-0.198664,-0.240927,-6.89795,-4.09741,0.39502
199,-3.79984e+36,-0.0146563,-0.0917927,9.99261,-0.185498,-0.319486,-4.19019,-4.09033,0.397217
200,-3.80248e+36,0.0205932,-0.0863704,9.996,-0.245641,-0.349455,-6.82715,-4.11133,0.392578
201,-3.80512e+36,-0.00871947,-0.0573947,9.95797,-0.21101,-0.34131,0.795166,-4.12305,0.392822
202,-3.80776e+36,-0.00649478,-0.0430387,9.95621,-0.256783,-0.295716,-7.44214,-4.15332,0.395752
203,-3.8104e+36,-0.0150282,-0.0600054,9.96717,-0.225815,-0.400197,-2.63062,-4.11133,0.394043
204,-3.81304e+36,-0.00120154,-0.0769287,10.0017,-0.298098,-0.331653,3.24976,-4.11499,0.396729
205,-3.81568e+36,-0.000593686,-0.0665143,10.0238,-0.190032,-0.393383,-4.48511,-4.09692,0.394043
206,-3.81832e+36,-0.00246058,-0.0755269,9.95049,-0.193464,-0.35071,0.12793,-4.09473,0.396729
207,-3.82097e+36,-0.00759632,-0.0429099,9.95625,-0.0757925,-0.199612,-2.06543,-4.10229,0.393066
208,-3.82361e+36,-0.0108723,-0.054054,9.95987,-0.203351,-0.303324,4.59692,-4.10181,0.394043
209,-3.82625e+36,0.000550769,-0.039684,9.96901,-0.236573,-0.249124,-7.5481,-4.09033,0.395752
210,-3.82889e+36,-0.00432747,-0.0657561,9.97805,-0.291618,-0.316822,4.5564,-4.11133,0.394531
211,-3.83153e+36,0.0200137,-0.0551341,9.99439,-0.183526,-0.260779,2.14941,-4.11572,0.398193
212,-3.83417e+36,0.00738173,-0.0699405,9.96328,-0.155811,-0.286751,6.95825,-4.10303,0.393066
213,-3.83681e+36,0.0224814,-0.0536821,9.9779,-0.273586,-0.385469,-6.79004,-4.09985,0.395264
214,-3.83945e+36,-0.00626589,-0.0688533,9.96709,-0.19577,-0.124562,-3.06567,-4.09961,0.396729
215,-3.84209e+36,-0.0165657,-0.0658845,10.0221,-0.162983,-0.206271,-0.362305,-4.0896,0.396484
216,-3.84473e+36,-0.0221813,-0.0476669,9.99118,-0.244718,-0.223023,5.21729,-4.09497,0.395752
217,-3.84737e+36,0.00911987,-0.0513574,9.97256,-0.0998187,-0.29003,-0.735352,-4.11621,0.392578
218,-3.85001e+36,-0.0124674,-0.0534389,9.96726,-0.0690304,-0.312647,7.68213,-4.09473,0.397217
219,-3.85266e+36,0.0121095,-0.0663503,9.99076,-0.125049,-0.307678,-2.51709,-4.08643,0.393555
220,-3.8553e+36,0.0325955,-0.0608564,9.98327,-0.204299,-0.369178,2.646,-4.12598,0.396484
221,-3.85794e+36,0.0293839,-0.0301278,9.99632,-0.196692,-0.381857,-6.44312,-4.09253,0.396729
222,-3.86058e+36,0.0187403,-0.0522232,9.95965,-0.166364,-0.271639,4.76904,-4.08203,0.394043
223,-3.86322e+36,-0.00268947,-0.0545404,9.97267,-0.137523,-0.34902,4.86279,-4.10498,0.398193
224,-3.86586e+36,-0.00396983,-0.0511285,9.98004,-0.0650345,-0.385033,6.50684,-4.11841,0.39209
225,-3.8685e+36,-0.027095,-0.0642325,9.98386,-0.144157,-0.337596,-6.6792,-4.10425,0.397217
226,-3.87114e+36,-0.0248347,-0.057094,9.98205,-0.139162,-0.339235,7.8584,-4.10913,0.394775
227,-3.87378e+36,-0.00422018,-0.0571369,9.98003,-0.145643,-0.345843,-3.83911,-4.10962,0.393555
228,-3.87642e+36,0.0126604,-0.0462363,9.97809,-0.15097,-0.253991,-6.72925,-4.10596,0.39624
229,-3.87906e+36,-0.00340475,-0.0757629,9.9616,-0.222229,-0.217772,-5.30029,-4.08423,0.391602
230,-3.8817e+36,0.0186829,-0.0520944,9.95786,-0.282269,-0.21516,-4.15869,-4.1062,0.398682
231,-3.88435e+36,-0.00481386,-0.0508496,9.95811,-0.185319,-0.290158,-6.26221,-4.10229,0.396484
232,-3.88699e+36,0.0160724,-0.0748688,9.97239,-0.218413,-0.173946,-2.37158,-4.10864,0.394043
233,-3.88963e+36,0.0276028,-0.0862418,9.99418,-0.185473,-0.236061,0.92749,-4.10425,0.395752
234,-3.89227e+36,0.018533,-0.0809344,9.97233,-0.127482,-0.36385,-1.63306,-4.11206,0.39502
235,-3.89491e+36,-0.00625851,-0.059633,10.0185,-0.208346,-0.242797,-7.19922,-4.10767,0.396729
236,-3.89755e+36,-0.00994245,-0.0560854,9.98562,-0.191364,-0.318308,0.795166,-4.12305,0.39502
237,-3.90019e+36,-0.0129109,-0.0601769,10.0039,-0.217567,-0.266106,2.87793,-4.14258,0.395752
238,-3.90283e+36,0.00910557,-0.047359,9.98,-0.155709,-0.345715,1.33887,-4.09839,0.394287
239,-3.90547e+36,0.0118451,-0.0715213,10.0018,-0.130786,-0.417794,-5.37012,-4.10254,0.393555
240,-3.90811e+36,0.0138551,-0.0805339,9.95409,-0.193311,-0.360623,3.80713,-4.1001,0.394775
241,-3.91075e+36,0.00909126,-0.0518223,9.99463,-0.121258,-0.249124,0.473633,-4.11768,0.394531
242,-3.91339e+36,-0.00358357,-0.0464935,9.97833,-0.190263,-0.285215,-6.6814,-4.10229,0.396729
243,-3.91604e+36,-0.0268875,-0.0470013,9.98591,-0.0736409,-0.286598,3.77246,-4.11353,0.395996
244,-3.91868e+36,-0.0302208,-0.0379744,9.98417,-0.244411,-0.33611,-7.4397,-4.09277,0.394531
245,-3.92132e+36,0.00498553,-0.0562285,9.96353,-0.20996,-0.223177,4.40112,-4.11255,0.396484
246,-3.92396e+36,0.0131113,-0.0622436,10.0037,-0.12615,-0.345664,2.55078,-4.10205,0.393066
247,-3.9266e+36,0.00432747,-0.0697116,9.98726,-0.18829,-0.342667,4.65674,-4.10791,0.398682
248,-3.92924e+36,0.0120597,-0.0461788,9.99468,-0.168772,-0.324532,1.66187,-4.10376,0.391602
249,-3.93188e+36,0.0123887,-0.0517937,9.97815,-0.151816,-0.388593,0.211914,-4.11841,0.394287
250,-3.93452e+36,-0.0105719,-0.0596762,9.99849,-0.183731,-0.319563,-1.70654,-4.09619,0.395508
251,-3.93716e+36,0.011888,-0.0652482,9.99639,-0.261163,-0.314696,-3.25098,-4.08691,0.396484
252,-3.9398e+36,0.0046422,-0.0545047,9.96907,-0.180657,-0.268719,6.63379,-4.0957,0.394775
253,-3.94244e+36,-0.01133,-0.0495046,9.98395,-0.183424,-0.269078,6.55933,-4.11865,0.393066
254,-3.94508e+36,0.016566,-0.0550483,9.9836,-0.12761,-0.402989,6.63916,-4.09961,0.398682
255,-3.94773e+36,0.00400543,-0.0369018,9.96739,-0.165365,-0.311495,2.93042,-4.11157,0.395996
256,-3.95037e+36,0.0229821,-0.0462503,9.97993,-0.156631,-0.455728,-3.26123,-4.11035,0.396484
257,-3.95301e+36,-0.0109653,-0.0395624,10.0005,-0.13281,-0.309625,4.59888,-4.10376,0.397949
258,-3.95565e+36,0.00186689,-0.0430387,9.96006,-0.290286,-0.246383,4.55396,-4.10938,0.392578
259,-3.95829e+36,-0.0267588,-0.0493403,9.98234,-0.227659,-0.287212,-0.78833,-4.11597,0.397705
260,-3.96093e+36,-0.00416992,-0.0550981,9.99669,-0.19518,-0.232961,-0.0571289,-4.11353,0.39209
261,-3.96357e+36,0.0147563,-0.0790961,10.0036,-0.164956,-0.306884,-1.11792,-4.13599,0.394287
262,-3.96621e+36,-0.00930585,-0.0480886,9.96386,-0.132631,-0.337519,5.12695,-4.1062,0.395264
263,-3.96885e+36,0.0191339,-0.0593185,9.99824,-0.0233602,-0.266414,5.89795,-4.09424,0.397461
264,-3.97149e+36,0.0117807,-0.0554989,9.96539,-0.137677,-0.275302,3.92578,-4.11035,0.397705
265,-3.97413e+36,0.0177247,-0.0429385,9.97824,-0.18368,-0.285266,2.45044,-4.10547,0.393555
266,-3.97677e+36,0.0405352,-0.0706055,9.99426,-0.0897267,-0.425785,5.80249,-4.10156,0.398682
267,-3.97942e+36,0.00592971,-0.0416009,9.97839,-0.187061,-0.200175,-2.46704,-4.11597,0.395508
268,-3.98206e+36,-0.0155431,-0.0494691,9.99141,-0.258806,-0.403475,2.33179,-4.09521,0.39502
269,-3.9847e+36,-0.0112729,-0.0571226,9.98765,-0.157015,-0.29523,-7.38965,-4.12231,0.394775
270,-3.98734e+36,-0.0110654,-0.0517365,9.97304,-0.24185,-0.389029,0.950928,-4.12183,0.392578
271,-3.98998e+36,-0.00132341,-0.0392766,9.98402,-0.173818,-0.39971,-3.61377,-4.09009,0.396729
272,-3.99262e+36,0.00839029,-0.0649407,9.96357,-0.224201,-0.24979,5.8606,-4.13696,0.393066
273,-3.99526e+36,0.0017596,-0.0546048,9.99854,-0.211471,-0.386775,-6.86304,-4.09253,0.395264
274,-3.9979e+36,0.0116162,-0.0603771,10.0057,-0.169131,-0.343974,3.04907,-4.09058,0.396973
275,-4.00054e+36,-0.00429886,-0.0680879,10.0058,-0.127866,-0.306346,-0.278809,-4.10474,0.393555
276,-4.00318e+36,0.0176747,-0.047781,9.98376,-0.177071,-0.288519,-2.42725,-4.10645,0.395752
277,-4.00582e+36,-0.00930588,-0.0555921,9.98402,-0.0777648,-0.435852,4.41113,-4.12036,0.393066
278,-4.00846e+36,0.000386254,-0.0555704,9.9766,-0.224509,-0.336238,7.90381,-4.10352,0.398193
279,-4.01111e+36,0.00283271,-0.0468581,9.99313,-0.324712,-0.27274,-7.36011,-4.10498,0.395996
280,-4.01375e+36,-0.00790389,-0.0546048,9.97489,-0.216696,-0.277069,2.70142,-4.09692,0.39502
281,-4.01639e+36,0.0160295,-0.0399772,9.96372,-0.251762,-0.186933,-6.60303,-4.09082,0.393799
282,-4.01903e+36,0.00744611,-0.0296843,9.99505,-0.201405,-0.247946,5.62256,-4.12402,0.392578
283,-4.02167e+36,0.00997822,-0.0775297,9.98915,-0.108118,-0.374967,0.180664,-4.09497,0.397217
284,-4.02431e+36,0.0103931,-0.0575732,9.99298,-0.176047,-0.467409,-6.13843,-4.11646,0.39502
285,-4.02695e+36,0.0090555,-0.0595403,9.9765,-0.253632,-0.406882,-7.56836,-4.10596,0.395752
286,-4.02959e+36,-0.0106938,-0.0581315,9.96212,-0.247485,-0.308523,2.97559,-4.10596,0.394531
287,-4.03223e+36,-0.0114088,-0.064397,10.0115,-0.197793,-0.473735,6.375,-4.09839,0.39502
288,-4.03487e+36,-0.000393406,-0.0495978,9.9694,-0.141237,-0.288237,5.22168,-4.09888,0.397705
289,-4.03751e+36,0.0111443,-0.0406779,9.98581,-0.163547,-0.359035,1.56616,-4.11108,0.393555
290,-4.04015e+36,-0.00492123,-0.0501132,9.9713,-0.0715406,-0.406139,-5.98999,-4.10938,0.398193
291,-4.0428e+36,0.00879786,-0.0593975,9.98937,-0.129736,-0.237521,-1.32397,-4.10767,0.39502
292,-4.04544e+36,-7.15284e-05,-0.0486966,9.99141,-0.107733,-0.179633,1.89185,-4.08813,0.39502
293,-4.04808e+36,0.0151567,-0.0689538,10.002,-0.170488,-0.306526,-4.89429,-4.10474,0.39502
294,-4.05072e+36,-0.0138406,-0.0693823,9.99142,-0.24103,-0.349276,-0.186035,-4.09546,0.391602
295,-4.05336e+36,-0.00798957,-0.0732234,9.97669,-0.205324,-0.314594,2.47217,-4.09082,0.395752
296,-4.056e+36,0.0183472,-0.0606916,10.0039,-0.194899,-0.406447,-6.37769,-4.09399,0.39209
297,-4.05864e+36,0.0113515,-0.0426741,9.99683,-0.155478,-0.378527,-2.17114,-4.10181,0.395264
298,-4.06128e+36,-0.00821146,-0.0558351,9.98966,-0.136421,-0.252198,-3.01318,-4.09985,0.396484
299,-4.06392e+36,0.0138909,-0.0429383,9.98033,-0.191133,-0.442665,-3.89722,-4.10547,0.393555
300,-4.06656e+36,0.00530026,-0.0596476,9.96383,-0.220513,-0.354655,-3.54077,-4.12866,0.398193
301,-4.0692e+36,0.00801118,-0.0619937,9.98942,-0.190083,-0.321382,-1.43213,-4.10522,0.390625
302,-4.07184e+36,0.00253926,-0.0456566,9.96767,-0.146462,-0.270076,3.36597,-4.09204,0.394287
303,-4.07449e+36,0.00530741,-0.0735026,9.98937,-0.0949007,-0.306295,-0.373779,-4.11206,0.393066
304,-4.07713e+36,0.0020028,-0.0444978,10.0025,-0.210318,-0.242669,4.74951,-4.09863,0.396484
305,-4.07977e+36,-0.030464,-0.0670293,9.99725,-0.198331,-0.368768,-0.0275879,-4.09619,0.39624
306,-4.08241e+36,0.0230965,-0.0540254,10.0003,-0.178992,-0.221384,7.96191,-4.10767,0.392578
307,-4.08505e+36,0.0122314,-0.0360718,9.99877,-0.217311,-0.163931,5.32227,-4.09546,0.39917
308,-4.08769e+36,0.0107579,-0.0565003,9.99312,-0.252377,-0.323303,-2.42969,-4.10449,0.39209
309,-4.09033e+36,0.0018742,-0.0622797,9.9749,-0.276608,-0.248432,-2.69116,-4.13647,0.392822
310,-4.09297e+36,-0.00246773,-0.0686888,10.028,-0.170514,-0.304861,0.822021,-4.10376,0.393799
311,-4.09561e+36,0.0117233,-0.0518655,9.97486,-0.231988,-0.364491,-0.883545,-4.12329,0.393066
312,-4.09825e+36,-0.025886,-0.0600336,9.9918,-0.267285,-0.311853,-3.79688,-4.10205,0.398682
313,-4.10089e+36,-0.0037624,-0.0472803,9.9788,-0.243335,-0.236112,-3.13892,-4.09229,0.392578
314,-4.10353e+36,-0.00884091,-0.0495477,9.98251,-0.157963,-0.196589,-0.175293,-4.10327,0.397705
315,-4.10618e+36,0.0116949,-0.0478311,9.99141,-0.194053,-0.289902,-5.2395,-4.09033,0.395508
316,-4.10882e+36,0.017231,-0.0460001,9.96571,-0.250584,-0.223689,-2.43701,-4.12988,0.393555
317,-4.11146e+36,0.00359073,-0.061493,10.0042,-0.218464,-0.200201,7.64722,-4.10815,0.395508
318,-4.1141e+36,-0.00538609,-0.0691179,9.99148,-0.305245,-0.190903,-5.56567,-4.11328,0.391602
319,-4.11674e+36,0.00375524,-0.0565432,9.97865,-0.169208,-0.31444,4.20532,-4.09204,0.396729
320,-4.11938e+36,-0.00286114,-0.0697545,9.98779,-0.187394,-0.268668,-1.87842,-4.09326,0.390625
321,-4.12202e+36,0.0046565,-0.0661924,9.97673,-0.271716,-0.264749,-6.16431,-4.12817,0.394775
322,-4.12466e+36,-0.000901258,-0.0627233,9.94754,-0.188393,-0.31485,-7.30493,-4.10718,0.396729
323,-4.1273e+36,-2.14585e-05,-0.0505277,9.98611,-0.17661,-0.352554,0.307129,-4.11108,0.394043
324,-4.12994e+36,0.000515005,-0.0526092,9.98608,-0.192517,-0.242413,2.57935,-4.09229,0.397705
325,-4.13258e+36,0.00102274,-0.060263,9.99151,-0.168875,-0.358753,-5.5498,-4.09375,0.392578
326,-4.13522e+36,-0.00236044,-0.0458283,9.98437,-0.208756,-0.370074,2.09644,-4.08423,0.397705
327,-4.13787e+36,0.0166947,-0.0460786,9.99875,-0.0821448,-0.252018,0.513184,-4.10815,0.396484
328,-4.14051e+36,-0.00705986,-0.0353279,9.98455,-0.105736,-0.368794,5.20044,-4.12207,0.395508
329,-4.14315e+36,-0.00794681,-0.0739675,9.98606,-0.203223,-0.461364,-2.04712,-4.14722,0.396729
330,-4.14579e+36,-0.0074175,-0.0432318,9.99733,-0.181067,-0.149203,-2.63599,-4.10742,0.391602
331,-4.14843e+36,0.0166516,-0.0414795,10.0025,-0.256911,-0.237572,6.97681,-4.08545,0.397217
332,-4.15107e+36,-0.00295399,-0.0658202,9.9989,-0.136012,-0.281833,-0.532227,-4.11133,0.390137
333,-4.15371e+36,0.00293999,-0.0568577,10.0044,-0.160857,-0.250763,7.01636,-4.10718,0.395264
334,-4.15635e+36,0.0230393,-0.0166017,10.0045,-0.130197,-0.268283,7.98096,-4.09106,0.394775
335,-4.15899e+36,-0.0163445,-0.0502632,10.0157,-0.0974622,-0.0589127,3.83569,-4.12158,0.39502
336,-4.16163e+36,-0.00556473,-0.0355637,10.0066,-0.162471,-0.252428,7.01636,-4.10718,0.39917
337,-4.16427e+36,-2.86114e-05,-0.0409929,9.9808,-0.249611,-0.193849,7.75293,-4.10864,0.394531
338,-4.16691e+36,-0.00675944,-0.0707202,9.98063,-0.0824522,-0.28939,-7.38794,-4.09204,0.39917
339,-4.16956e+36,-0.00644456,-0.0562282,9.98442,-0.1522,-0.303298,4.03394,-4.11279,0.394531
340,-4.1722e+36,0.0123816,-0.0581312,9.98779,-0.212573,-0.269436,-5.32007,-4.13208,0.396484
341,-4.17484e+36,0.0237117,-0.0619293,9.98211,-0.317617,-0.413772,-1.54297,-4.10083,0.394287
342,-4.17748e+36,0.00816877,-0.0645827,10.0025,-0.206451,-0.305117,0.460205,-4.10791,0.392578
343,-4.18012e+36,0.0192197,-0.0718217,9.97293,-0.13947,-0.304604,-4.53296,-4.10059,0.39917
344,-4.18276e+36,-0.000622297,-0.0412147,9.98453,-0.140801,-0.30317,1.14624,-4.11108,0.39209
345,-4.1854e+36,0.000143057,-0.0616289,9.99165,-0.176943,-0.319666,-4.63135,-4.10596,0.396729
346,-4.18804e+36,0.00982801,-0.0600052,9.99702,-0.107887,-0.388056,-4.90015,-4.10083,0.396973
347,-4.19068e+36,0.00678089,-0.0620509,9.99889,-0.206297,-0.265978,1.78784,-4.11987,0.394043
348,-4.19332e+36,-0.00794701,-0.0549342,9.97355,-0.164034,-0.31129,-6.21191,-4.10059,0.397217
349,-4.19596e+36,0.00170953,-0.0496622,9.9808,-0.137805,-0.229452,0.101074,-4.11401,0.393066
350,-4.1986e+36,0.00605846,-0.0573157,9.99897,-0.128942,-0.319691,-5.08545,-4.11938,0.397217
351,-4.20125e+36,0.00634457,-0.0537536,9.98985,-0.175586,-0.245948,-1.7937,-4.10938,0.394531
352,-4.20389e+36,-0.0114803,-0.0651839,9.99001,-0.153788,-0.275558,4.2002,-4.11938,0.395508
353,-4.20653e+36,0.0107865,-0.0578379,9.98792,-0.221205,-0.432624,-1.46289,-4.09033,0.401367
354,-4.20917e+36,0.00956335,-0.069075,9.97869,-0.153173,-0.199765,1.39478,-4.10059,0.393066
355,-4.21181e+36,-0.010064,-0.0514647,10.0066,-0.170898,-0.208192,7.54175,-4.10767,0.397217
356,-4.21445e+36,-0.00481386,-0.0458712,9.97548,-0.154172,-0.288365,7.22241,-4.10425,0.390625
357,-4.21709e+36,-0.00569366,-0.0809916,9.98432,-0.227531,-0.205708,-7.04102,-4.13965,0.394775
358,-4.21973e+36,-0.000164791,-0.0538113,9.98633,-0.198562,-0.329373,7.51245,-4.09375,0.395752
359,-4.22237e+36,0.00777514,-0.0650265,9.98794,-0.249175,-0.221973,-7.02539,-4.12012,0.394531
360,-4.22501e+36,0.00445612,-0.0508855,9.99912,-0.155222,-0.275712,-3.07104,-4.12695,0.395752
361,-4.22765e+36,0.0134831,-0.0397698,9.97345,-0.243284,-0.232961,5.58643,-4.09668,0.392578
362,-4.23029e+36,0.00517164,-0.0696326,9.98428,-0.140468,-0.355679,4.76758,-4.1123,0.398193
363,-4.23294e+36,-0.00207432,-0.0514647,9.96994,-0.183961,-0.247536,-5.05298,-4.104,0.395996
364,-4.23558e+36,0.0221879,-0.0478888,9.97875,-0.136498,-0.328912,-0.203857,-4.09033,0.396973
365,-4.23822e+36,0.014041,-0.0721579,9.99513,-0.198049,-0.232295,2.41211,-4.08472,0.398193
366,-4.24086e+36,-0.00959196,-0.0653341,9.99009,-0.2179,-0.269282,-7.60864,-4.11548,0.393066
367,-4.2435e+36,-0.0045349,-0.0250707,9.96662,-0.16557,-0.317898,-6.7876,-4.10181,0.395752
368,-4.24614e+36,-0.00922027,-0.0564936,9.96638,-0.16639,-0.25855,-2.45898,-4.09058,0.394531
369,-4.24878e+36,0.00253926,-0.067766,9.98257,-0.180632,-0.239391,3.65918,-4.10718,0.395264
370,-4.25142e+36,-0.00638749,-0.0607849,9.98096,-0.106145,-0.339081,3.40332,-4.11182,0.39624
371,-4.25406e+36,-0.00633027,-0.0643041,9.95163,-0.175176,-0.349173,4.02344,-4.10498,0.39502
372,-4.2567e+36,-0.00663069,-0.0670221,10.0121,-0.169387,-0.337211,-6.23877,-4.08862,0.394775
373,-4.25934e+36,0.0117591,-0.0704416,9.98426,-0.192901,-0.364132,-0.531982,-4.11133,0.394043
374,-4.26198e+36,-0.000593686,-0.0690321,9.98265,-0.0541741,-0.264954,-4.46997,-4.10864,0.396729
375,-4.26463e+36,0.0122314,-0.0614429,9.96421,-0.0956692,-0.281219,-0.515137,-4.09277,0.395508
376,-4.26727e+36,-0.0160295,-0.0641252,10.0013,-0.195411,-0.288468,5.21973,-4.09692,0.39209
377,-4.26991e+36,0.0203427,-0.0526664,9.96784,-0.245333,-0.160909,-2.12329,-4.09814,0.397217
378,-4.27255e+36,-0.00268232,-0.0572514,9.99749,-0.161549,-0.269923,2.10181,-4.08813,0.393066
379,-4.27519e+36,0.00137335,-0.0610924,9.99555,-0.195949,-0.308754,1.33691,-4.12769,0.395752
380,-4.27783e+36,-1.43057e-05,-0.0577521,9.99746,-0.209063,-0.364363,-5.08789,-4.11743,0.391602
381,-4.28047e+36,0.00769689,-0.0724293,9.97887,-0.299225,-0.236471,-7.75513,-4.09229,0.394775
382,-4.28311e+36,-0.0044133,-0.0514361,10.0159,-0.101099,-0.182886,-2.35083,-4.09302,0.39624
383,-4.28575e+36,0.00397698,-0.0544617,9.95166,-0.211292,-0.347662,6.2749,-4.10181,0.393066
384,-4.28839e+36,-0.000937022,-0.0403349,9.96655,-0.203736,-0.416897,-6.5,-4.12061,0.39624
385,-4.29103e+36,-0.0070383,-0.0592754,9.99027,-0.184448,-0.413234,-4.78418,-4.10913,0.39209
386,-4.29367e+36,-0.000329031,-0.061679,10.0249,-0.149946,-0.396739,7.5498,-4.11353,0.397217
387,-4.29632e+36,0.00299704,-0.0522014,9.97739,-0.163982,-0.252531,4.29541,-4.11206,0.396484
388,-4.29896e+36,-0.011294,-0.0489681,9.9795,-0.218976,-0.204939,6.31714,-4.09424,0.393555
389,-4.3016e+36,-0.00938453,-0.0491329,9.96666,-0.205119,-0.290261,1.65918,-4.10181,0.395752
390,-4.30424e+36,-0.0139767,-0.0661352,9.98304,-0.19933,-0.457317,3.06836,-4.09668,0.394043
391,-4.30688e+36,-0.00434205,-0.0643972,9.97375,-0.15348,-0.0705672,-1.26074,-4.11572,0.398682
392,-4.30952e+36,0.00306834,-0.0627021,9.97364,-0.221435,-0.259395,-1.68799,-4.10986,0.393555
393,-4.31216e+36,-0.0105932,-0.0562996,10.0143,-0.143055,-0.301147,-0.0429688,-4.09302,0.395752
394,-4.3148e+36,0.0129326,-0.0376021,9.98475,-0.20996,-0.327888,-4.7998,-4.09741,0.395264
395,-4.31744e+36,0.0017523,-0.0267161,9.95394,-0.192184,-0.343948,-0.570557,-4.09058,0.395508
396,-4.32008e+36,0.0339474,-0.0378815,9.9789,-0.26398,-0.24167,5.03149,-4.11353,0.397217
397,-4.32272e+36,0.0150138,-0.0535676,10.0175,-0.178634,-0.313083,1.24194,-4.10376,0.39209
398,-4.32536e+36,0.00343336,-0.0442332,9.96473,-0.160857,-0.250789,1.29956,-4.10791,0.399658
399,-4.32801e+36,-0.00116591,-0.0484963,9.99224,-0.201507,-0.236547,4.83081,-4.12036,0.39502
400,-4.33065e+36,0.00158059,-0.0618366,10.0159,-0.243515,-0.330244,-3.9292,-4.12085,0.393066
401,-4.33329e+36,-0.00773919,-0.045549,9.99057,-0.180145,-0.298483,-2.89429,-4.11011,0.393799
402,-4.33593e+36,-0.0143844,-0.0605846,9.9942,-0.158065,-0.387006,4.5647,-4.11719,0.392578
403,-4.33857e+36,0.00266801,-0.0533531,9.9995,-0.144977,-0.152353,-6.56592,-4.1106,0.398193
404,-4.34121e+36,-0.00513596,-0.0404925,9.96864,-0.319077,-0.289825,-3.92407,-4.12476,0.39209
405,-4.34385e+36,-0.00620867,-0.04301,9.98696,-0.182348,-0.317719,-2.14111,-4.09302,0.395752
406,-4.34649e+36,-0.00527165,-0.0526521,10.007,-0.172384,-0.203454,2.83032,-4.11499,0.395752
407,-4.34913e+36,0.00520742,-0.0504487,9.96288,-0.177968,-0.349455,-1.73047,-4.11743,0.393555
408,-4.35177e+36,-0.014191,-0.0620076,9.9686,-0.194207,-0.268591,-4.71313,-4.0918,0.395752
409,-4.35441e+36,-0.0114517,-0.0589537,9.99972,-0.130376,-0.256706,-2.87744,-4.09155,0.394043
410,-4.35705e+36,-0.0023962,-0.0659993,9.96837,-0.255297,-0.366104,-1.06274,-4.10693,0.394775
411,-4.3597e+36,-0.0106078,-0.0594762,9.99605,-0.200098,-0.365387,-6.02368,-4.09253,0.396484
412,-4.36234e+36,-0.0192555,-0.0653055,9.99068,-0.199484,-0.257987,6.42603,-4.12793,0.396484
413,-4.36498e+36,-0.00954905,-0.0746685,9.99407,-0.189494,-0.336443,6.03491,-4.11816,0.39624
414,-4.36762e+36,-0.00952759,-0.0583171,9.9796,-0.185063,-0.319717,4.81274,-4.10669,0.394043
415,-4.37026e+36,-0.0133257,-0.0346341,9.96347,-0.118082,-0.248996,4.87329,-4.11279,0.396729
416,-4.3729e+36,0.0134547,-0.0549622,9.99206,-0.250789,-0.236778,3.72485,-4.11719,0.39209
417,-4.37554e+36,0.0028109,-0.0500058,9.99598,-0.223074,-0.381857,4.36157,-4.09082,0.397705
418,-4.37818e+36,0.0102999,-0.0300209,9.98876,-0.219232,-0.35281,7.28052,-4.1084,0.395508
419,-4.38082e+36,-0.0184829,-0.0724869,9.95952,-0.134526,-0.329015,-3.90747,-4.09766,0.395508
420,-4.38346e+36,0.0155288,-0.0599051,9.99934,-0.191082,-0.421354,-6.36523,-4.10376,0.397705
421,-4.3861e+36,-0.00640179,-0.0437611,9.9798,-0.1303,-0.294308,5.30322,-4.08936,0.393066
422,-4.38874e+36,0.012167,-0.0472374,9.96842,-0.19454,-0.398404,-3.58594,-4.10303,0.39624
423,-4.39139e+36,0.000207432,-0.0533101,9.97958,-0.202865,-0.357575,5.6521,-4.10669,0.394531
424,-4.39403e+36,-0.0103144,-0.051901,9.97797,-0.18432,-0.400222,4.19238,-4.11353,0.39502
425,-4.39667e+36,-0.00803264,-0.0520512,9.97062,-0.214263,-0.383829,-3.21582,-4.10474,0.394287
426,-4.39931e+36,0.00542186,-0.055878,9.97216,-0.158245,-0.337903,-0.783203,-4.11987,0.393066
427,-4.40195e+36,0.000987212,-0.0656127,9.99596,-0.149587,-0.359982,1.63062,-4.08887,0.397705
428,-4.40459e+36,-0.00967064,-0.0640394,9.98703,-0.143363,-0.276429,-0.306641,-4.0918,0.394043
429,-4.40723e+36,5.72227e-05,-0.0533388,10.0035,-0.145796,-0.397815,2.21265,-4.09253,0.393311
430,-4.40987e+36,-0.0124674,-0.0426524,9.99652,-0.234601,-0.332959,3.27661,-4.0957,0.39624
431,-4.41251e+36,0.00255356,-0.0499841,9.98516,-0.239877,-0.341899,-0.811523,-4.12964,0.396484
432,-4.41515e+36,-0.00241766,-0.0540397,9.98339,-0.0777648,-0.339107,5.35864,-4.1228,0.39624
433,-4.41779e+36,0.00695972,-0.0411575,9.97787,-0.168619,-0.357242,2.55078,-4.10205,0.39209
434,-4.42043e+36,-0.00497123,-0.0617648,9.98337,-0.147128,-0.304963,5.40112,-4.11523,0.397217
435,-4.42308e+36,-0.00987092,-0.0421803,10.0057,-0.251224,-0.256142,-4.1106,-4.10254,0.39502
436,-4.42572e+36,-0.00318302,-0.0509139,9.94685,-0.0902902,-0.344435,-6.44971,-4.15015,0.394043
437,-4.42836e+36,0.00183126,-0.0678588,9.97954,-0.214212,-0.414874,7.16431,-4.1001,0.396729
438,-4.431e+36,-0.0102643,-0.0629593,9.98899,-0.217644,-0.294,2.93848,-4.11743,0.392578
439,-4.43364e+36,-0.00108707,-0.0483743,9.97801,-0.172819,-0.388722,4.45605,-4.11475,0.39917
440,-4.43628e+36,0.0127464,-0.043289,10.0053,-0.23583,-0.418101,-1.30176,-4.09302,0.390137
441,-4.43892e+36,0.000407712,-0.0600624,9.98704,-0.115879,-0.345638,-4.78149,-4.11108,0.394775
442,-4.44156e+36,-0.0137551,-0.0586035,9.98733,-0.163368,-0.321484,3.56665,-4.11646,0.394775
443,-4.4442e+36,0.0018812,-0.0607777,10.0127,-0.132477,-0.373379,4.96338,-4.10156,0.393555
444,-4.44684e+36,-0.0111582,-0.0461428,9.9838,-0.290491,-0.318539,-1.49756,-4.09521,0.395264
445,-4.44948e+36,-0.0305999,-0.0560568,9.98957,-0.197819,-0.320076,3.82812,-4.11572,0.393066
446,-4.45212e+36,-0.0189336,-0.0508782,10.0041,-0.157553,-0.3357,0.286133,-4.09546,0.400635
447,-4.45477e+36,-0.00077966,-0.0668076,9.95957,-0.118107,-0.325685,3.59644,-4.09912,0.394531
448,-4.45741e+36,0.0141626,-0.0485106,9.96316,-0.193285,-0.306756,0.724121,-4.10913,0.393555
449,-4.46005e+36,0.0114302,-0.0636675,9.9777,-0.169413,-0.16639,6.45044,-4.08398,0.397217
450,-4.46269e+36,-0.0191696,-0.0554345,9.99857,-0.123179,-0.265235,4.2876,-4.1062,0.394531
451,-4.46533e+36,0.0120382,-0.0513646,9.98517,-0.127508,-0.23624,-0.553223,-4.12695,0.397217
452,-4.46797e+36,0.0124245,-0.07881,9.96836,-0.0838354,-0.24208,1.19629,-4.10938,0.391113
453,-4.47061e+36,0.0145489,-0.0643541,9.97583,-0.179376,-0.356115,3.09937,-4.12012,0.395752
454,-4.47325e+36,-0.00854765,-0.0541542,9.9929,-0.195795,-0.337237,-2.4104,-4.08789,0.394775
455,-4.47589e+36,0.0120382,-0.0614,9.98508,-0.133501,-0.27315,2.1084,-4.09302,0.39502
456,-4.47853e+36,-0.00402705,-0.0654557,9.98354,-0.23601,-0.236804,-1.57202,-4.11816,0.397705
457,-4.48117e+36,-0.000157363,-0.058403,9.98173,-0.153609,-0.336059,4.08398,-4.11108,0.395508
458,-4.48381e+36,-0.00123043,-0.0624517,9.99271,-0.23747,-0.352811,-3.63867,-4.10278,0.39624
459,-4.48646e+36,-0.0153142,-0.0684599,9.9911,-0.237341,-0.334906,7.38623,-4.10889,0.393555
460,-4.4891e+36,0.0126031,-0.06115,9.99429,-0.207168,-0.361852,3.72607,-4.08691,0.395996
461,-4.49174e+36,-0.00218162,-0.0485463,9.97095,-0.124357,-0.207347,-1.82959,-4.09058,0.398682
462,-4.49438e+36,-0.00734588,-0.0506418,9.97104,-0.0787894,-0.292745,-0.645508,-4.10498,0.392578
463,-4.49702e+36,-0.00876223,-0.0525806,9.96922,-0.167517,-0.291618,2.54834,-4.1001,0.394775
464,-4.49966e+36,-0.00430606,-0.049369,9.98933,-0.271869,-0.326351,2.78784,-4.18506,0.394043
465,-4.5023e+36,-0.00181682,-0.0607419,9.99098,-0.192901,-0.354322,5.76001,-4.10913,0.395264
466,-4.50494e+36,0.0149922,-0.0443336,9.99269,-0.129992,-0.232424,0.246582,-4.10498,0.397217
467,-4.50758e+36,0.0185473,-0.0478382,9.96876,-0.121693,-0.364055,0.861816,-4.12549,0.394287
468,-4.51022e+36,-0.0119665,-0.0593969,9.9656,-0.25832,-0.446277,4.1189,-4.09766,0.396729
469,-4.51286e+36,-0.0165374,-0.0473089,9.98784,-0.275737,-0.253171,3.86792,-4.1062,0.39209
470,-4.5155e+36,0.0043562,-0.0639891,9.99453,-0.207603,-0.380576,2.18945,-4.1062,0.398682
471,-4.51815e+36,-0.00461326,-0.0515002,9.98573,-0.148691,-0.135884,7.38354,-4.10693,0.395508
472,-4.52079e+36,0.00651602,-0.0587824,9.9781,-0.235523,-0.328503,-6.19385,-4.11426,0.397461
473,-4.52343e+36,0.00711708,-0.0591898,9.98357,-0.154915,-0.30527,-5.60278,-4.12476,0.397705
474,-4.52607e+36,0.00419881,-0.0542039,10.002,-0.0867298,-0.292924,6.49634,-4.1106,0.39209
475,-4.52871e+36,0.00270377,-0.0561212,9.99656,-0.112293,-0.380013,-5.46265,-4.11182,0.397217
476,-4.53135e+36,-0.000136135,-0.0583246,10.0076,-0.161779,-0.222485,-5.49854,-4.09302,0.393066
477,-4.53399e+36,0.0149208,-0.0620151,10.0091,-0.0735897,-0.231476,-3.30103,-4.08862,0.395752
478,-4.53663e+36,-0.0106648,-0.0659418,9.99309,-0.146257,-0.465436,4.34277,-4.1084,0.395264
479,-4.53927e+36,-0.00492831,-0.0730806,9.96724,-0.166108,-0.294717,-5.01318,-4.09448,0.393555
480,-4.54191e+36,-0.00995676,-0.0516364,9.98411,-0.188828,-0.384803,2.73267,-4.08911,0.397217
481,-4.54455e+36,0.000557922,-0.0667789,10.0112,-0.156119,-0.396944,1.62915,-4.11914,0.39209
482,-4.54719e+36,0.0206002,-0.0499698,9.99083,-0.176123,-0.23268,-0.283936,-4.10083,0.397705
483,-4.54984e+36,-0.00293982,-0.0505348,9.98767,-0.172538,-0.314415,6.68481,-4.09399,0.39502
484,-4.55248e+36,-0.0136977,-0.0453562,9.98065,-0.120617,-0.42243,3.07373,-4.10059,0.393555
485,-4.55512e+36,-0.010622,-0.0622227,9.99871,-0.193413,-0.417051,-0.566895,-4.12476,0.397949
486,-4.55776e+36,0.00642325,-0.0513503,10.004,-0.12323,-0.33862,-3.92407,-4.09351,0.394043
487,-4.5604e+36,0.0195058,-0.060277,9.98712,-0.135192,-0.438977,6.80005,-4.10229,0.397217
488,-4.56304e+36,-0.00954189,-0.0334467,9.98812,-0.16306,-0.37717,0.729248,-4.11304,0.395508
489,-4.56568e+36,0.00440615,-0.0628806,9.99477,-0.202276,-0.278657,2.43726,-4.0957,0.395264
490,-4.56832e+36,-0.00822563,-0.0614069,9.98591,-0.167876,-0.359316,-4.08984,-4.11816,0.394287
491,-4.57096e+36,-0.0021387,-0.0743109,9.98013,-0.159807,-0.327171,-5.60938,-4.08862,0.395508
492,-4.5736e+36,0.00924147,-0.0507566,9.99302,-0.199407,-0.227762,-7.58423,-4.09424,0.396729
493,-4.57624e+36,-0.0158006,-0.0570225,10.0008,-0.161908,-0.401349,0.70874,-4.09741,0.392578
494,-4.57888e+36,-0.00469226,-0.0422948,9.98981,-0.243207,-0.291362,6.07202,-4.13794,0.397705
495,-4.58153e+36,-0.0185903,-0.0648407,9.98983,-0.190621,-0.39387,1.62695,-4.11719,0.394531
496,-4.58417e+36,-0.0241339,-0.0503062,9.97184,-0.199791,-0.292156,-3.78418,-4.11182,0.395996
497,-4.58681e+36,-0.00133758,-0.0450629,9.9934,-0.234165,-0.357754,-3.21899,-4.10278,0.398682
498,-4.58945e+36,-0.00648048,-0.0526378,9.98061,-0.188085,-0.183475,-2.38501,-4.09888,0.393555
499,-4.59209e+36,-0.00261794,-0.0510069,9.97871,-0.156349,-0.244052,-7.10132,-4.10229,0.397217
500,-4.59473e+36,0.0139266,-0.0453562,9.96927,-0.126509,-0.396764,1.78784,-4.11987,0.394531
501,-4.59737e+36,0.00582957,-0.0641181,9.97838,-0.180478,-0.426631,6.0874,-4.11841,0.397705
502,-4.60001e+36,0.006552,-0.0608135,9.98575,-0.157451,-0.250866,4.13965,-4.11328,0.395508
503,-4.60265e+36,0.0121527,-0.0571798,9.97651,-0.117774,-0.150227,-4.1665,-4.10034,0.39502
504,-4.60529e+36,-0.00264655,-0.0464649,9.96784,-0.0973853,-0.258217,6.79517,-4.09839,0.395752
505,-4.60793e+36,0.00694562,-0.0392403,9.97506,-0.19892,-0.203582,-6.72388,-4.10986,0.394043
506,-4.61057e+36,-0.0168306,-0.0488038,9.95716,-0.122846,-0.32904,7.85107,-4.10327,0.397705
507,-4.61322e+36,-0.0013805,-0.0543974,9.96773,-0.15074,-0.253197,0.106689,-4.08667,0.396973
508,-4.61586e+36,0.0118165,-0.0526092,9.96931,-0.154172,-0.267182,2.24731,-4.11035,0.395508
509,-4.6185e+36,-0.010722,-0.066421,9.99895,-0.144311,-0.265466,-1.79126,-4.11133,0.397217
510,-4.62114e+36,-0.00386254,-0.0623728,9.96406,-0.177199,-0.308114,1.97266,-4.10132,0.393066
511,-4.62378e+36,0.00607992,-0.060885,9.98035,-0.145105,-0.294359,-4.60913,-4.09131,0.394775
512,-4.62642e+36,0.0117805,-0.0463723,9.98043,-0.169541,-0.294641,-2.14111,-4.09302,0.391113
513,-4.62906e+36,0.00331177,-0.0577735,9.98414,-0.17118,-0.356678,0.947266,-4.08765,0.397217
514,-4.6317e+36,-0.0053075,-0.0600054,9.98432,-0.160012,-0.385161,6.69971,-4.10571,0.394775
515,-4.63434e+36,-0.0182326,-0.0491615,9.9628,-0.138419,-0.280706,6.74731,-4.1333,0.393555
516,-4.63698e+36,-0.0329961,-0.0685314,10.0068,-0.227198,-0.170924,6.07178,-4.10669,0.395752
517,-4.63962e+36,-0.00264655,-0.0623227,9.96595,-0.199586,-0.341233,-7.04102,-4.1084,0.394043
518,-4.64226e+36,0.0216159,-0.0458926,9.97479,-0.16721,-0.335854,2.02344,-4.09961,0.396729
519,-4.64491e+36,-0.0054145,-0.0592324,9.96424,-0.205913,-0.349634,6.81348,-4.11206,0.396484
520,-4.64755e+36,0.00287537,-0.0433609,9.99543,-0.0998699,-0.423531,4.78052,-4.09082,0.393555
521,-4.65019e+36,-0.00338329,-0.0801619,9.98958,-0.234729,-0.280758,-7.31006,-4.10327,0.394775
522,-4.65283e+36,0.00208863,-0.0692753,9.97863,-0.230246,-0.260855,-6.11157,-4.09717,0.393066
523,-4.65547e+36,-0.0265297,-0.0557489,10.0015,-0.174587,-0.373942,4.92334,-4.11108,0.396729
524,-4.65811e+36,-0.00644471,-0.0480743,9.98098,-0.194386,-0.262059,-6.54761,-4.09302,0.392578
525,-4.66075e+36,0.00225315,-0.0760347,10.0042,-0.191723,-0.334496,-3.74414,-4.10229,0.394775
526,-4.66339e+36,-0.0110438,-0.0469153,9.98297,-0.29213,-0.310547,-2.1228,-4.09814,0.396729
527,-4.66603e+36,0.0172171,-0.0471011,9.99697,-0.180299,-0.314773,-4.89502,-4.10474,0.394531
528,-4.66867e+36,-0.00437039,-0.067623,9.98071,-0.158655,-0.334368,-5.0481,-4.10791,0.395752
529,-4.67131e+36,-0.0177605,-0.0758058,10.0084,-0.160089,-0.240492,3.05298,-4.09351,0.391113
530,-4.67395e+36,0.00531456,-0.0514361,9.97891,-0.174202,-0.262213,6.64478,-4.10352,0.398682
531,-4.6766e+36,-0.0200923,-0.0520012,9.97217,-0.239724,-0.149229,7.40405,-4.09131,0.394531
532,-4.67924e+36,0.00742445,-0.0608782,9.95859,-0.14075,-0.218976,1.89722,-4.09204,0.396973
533,-4.68188e+36,0.000722437,-0.0450558,9.9828,-0.147128,-0.31964,4.92358,-4.11108,0.394287
534,-4.68452e+36,-0.00507137,-0.0550984,10.0213,-0.195257,-0.32881,-5.62646,-4.13843,0.393555
535,-4.68716e+36,0.0126033,-0.0507923,9.97696,-0.172973,-0.338057,4.40601,-4.11646,0.39917
536,-4.6898e+36,-0.00528619,-0.033168,9.98681,-0.189238,-0.247485,3.75415,-4.09985,0.39209
537,-4.69244e+36,-0.0041558,-0.0629164,9.9992,-0.179376,-0.281705,-3.64868,-4.09497,0.394775
538,-4.69508e+36,0.00620867,-0.0551127,9.9606,-0.188495,-0.225098,2.88818,-4.11914,0.394287
539,-4.69772e+36,-0.0015735,-0.0634239,9.99915,-0.177942,-0.473454,-3.13745,-4.09326,0.393066
540,-4.70036e+36,-0.0158794,-0.0637177,9.98485,-0.23688,-0.379321,5.44604,-4.10962,0.395752
541,-4.703e+36,0.00814681,-0.0489616,9.98084,-0.234703,-0.287315,-0.753662,-4.10254,0.392578
542,-4.70564e+36,0.000493778,-0.0573584,10.0212,-0.187804,-0.217977,-4.90015,-4.10083,0.397217
543,-4.70829e+36,0.00153765,-0.0460576,9.98289,-0.12282,-0.267669,6.4541,-4.08691,0.394043
544,-4.71093e+36,0.0145989,-0.0423164,9.97898,-0.110116,-0.301941,-7.35254,-4.14209,0.395508
545,-4.71357e+36,0.00473518,-0.0630094,9.99359,-0.186267,-0.351069,6.86328,-4.11035,0.397217
546,-4.71621e+36,0.00508567,-0.077687,9.9769,-0.173741,-0.321868,-0.844971,-4.08154,0.393066
547,-4.71885e+36,-0.0095564,-0.0815213,9.95522,-0.174023,-0.277044,7.74756,-4.10474,0.39917
548,-4.72149e+36,-0.0119952,-0.0641965,10.0014,-0.169413,-0.33716,6.66919,-4.09082,0.393555
549,-4.72413e+36,-0.0163369,-0.0692464,9.9501,-0.201686,-0.264313,3.29736,-4.11133,0.393311
550,-4.72677e+36,-0.00959181,-0.0572724,9.99409,-0.126201,-0.327376,-2.0127,-4.10254,0.394775
551,-4.72941e+36,-0.00763208,-0.0390903,9.99249,-0.110295,-0.30901,-2.44238,-4.09473,0.393066
552,-4.73205e+36,-0.00494977,-0.0448984,10.0052,-0.241978,-0.203761,2.65674,-4.10254,0.395752
553,-4.73469e+36,0.0214943,-0.0331391,9.95891,-0.144183,-0.42868,4.77954,-4.08984,0.393555
554,-4.73733e+36,0.0203497,-0.0587895,9.94392,-0.16703,-0.404474,7.354,-4.09302,0.396729
555,-4.73998e+36,0.00796111,-0.0620795,10.0101,-0.184064,-0.285138,-1.073,-4.09912,0.395508
556,-4.74262e+36,0.00620172,-0.0657987,9.99365,-0.208167,-0.277479,-6.98535,-4.1106,0.394531
557,-4.74526e+36,0.0122527,-0.0642829,10.0009,-0.151918,-0.42412,-2.70386,-4.09546,0.396729
558,-4.7479e+36,-0.00537894,-0.0576018,10.0088,-0.0594506,-0.358497,6.98193,-4.12061,0.393066
559,-4.75054e+36,0.00304699,-0.0477313,9.96473,-0.130376,-0.401887,-7.97803,-4.08252,0.39624
560,-4.75318e+36,-0.00149494,-0.0536535,9.97577,-0.167568,-0.324225,-7.37305,-4.09521,0.393066
561,-4.75582e+36,0.0105649,-0.0486392,10.003,-0.241004,-0.311341,4.82568,-4.14771,0.395264
562,-4.75846e+36,-0.00801834,-0.0597405,9.96671,-0.192491,-0.267156,0.866699,-4.09814,0.393799
563,-4.7611e+36,0.0111227,-0.0654128,9.98082,-0.162727,-0.216466,-6.30176,-4.11182,0.393066
564,-4.76374e+36,-0.00479956,-0.0606275,9.99412,-0.211804,-0.314184,1.76416,-4.13354,0.397705
565,-4.76638e+36,-0.00481386,-0.0407211,9.98893,-0.128942,-0.309753,-5.14331,-4.11523,0.393066
566,-4.76902e+36,0.0144702,-0.0699047,9.98985,-0.168157,-0.204811,0.769531,-4.10352,0.398682
567,-4.77167e+36,0.0103359,-0.0353136,9.98316,-0.0945165,-0.355141,-5.10083,-4.10767,0.393555
568,-4.77431e+36,-0.00920571,-0.0448984,9.97986,-0.278145,-0.361596,1.82227,-4.10645,0.396484
569,-4.77695e+36,-0.012403,-0.0525877,9.97252,-0.155504,-0.321203,5.39087,-4.10742,0.396729
570,-4.77959e+36,0.0155645,-0.0505637,9.97552,-0.2325,-0.347995,4.96582,-4.10352,0.391602
571,-4.78223e+36,0.00864056,-0.0600055,9.96457,-0.0626012,-0.266234,7.43408,-4.10522,0.395264
572,-4.78487e+36,0.00369065,-0.0639181,9.96831,-0.221384,-0.262904,-6.88013,-4.11108,0.392578
573,-4.78751e+36,-0.00339045,-0.042538,9.97799,-0.185729,-0.423122,1.24683,-4.10767,0.392822
574,-4.79015e+36,0.00504991,-0.0556563,9.98859,-0.19997,-0.292105,2.66406,-4.1084,0.395752
575,-4.79279e+36,0.00342621,-0.0431603,9.98883,-0.164264,-0.249201,4.34277,-4.1084,0.394043
576,-4.79543e+36,-0.00714569,-0.0363937,9.99654,-0.168029,-0.18368,-0.323975,-4.11035,0.395752
577,-4.79807e+36,-0.000143057,-0.039777,9.97067,-0.212726,-0.313646,6.23535,-4.11133,0.393066
578,-4.80071e+36,0.0210725,-0.043725,9.99207,-0.137164,-0.251762,3.8396,-4.09326,0.397705
579,-4.80336e+36,0.00535033,-0.0661853,9.99214,-0.197383,-0.2721,0.027832,-4.09814,0.395996
580,-4.806e+36,0.0164515,-0.0606776,9.98462,-0.162343,-0.324353,7.00879,-4.10132,0.395508
581,-4.80864e+36,0.00482102,-0.0778658,10.0012,-0.263519,-0.377733,3.59863,-4.10107,0.398193
582,-4.81128e+36,0.00623728,-0.052273,9.98138,-0.173127,-0.284728,-4.97583,-4.09155,0.393555
583,-4.81392e+36,0.00285398,-0.0506993,9.97785,-0.147026,-0.327837,1.04102,-4.1106,0.398193
584,-4.81656e+36,0.00526449,-0.0672367,9.97023,-0.16908,-0.24769,2.35254,-4.11084,0.39209
585,-4.8192e+36,0.0037624,-0.0385181,9.98904,-0.234037,-0.27146,3.56909,-4.11841,0.392822
586,-4.82184e+36,0.0240693,-0.0474233,9.97373,-0.14741,-0.428091,5.30078,-4.11865,0.39624
587,-4.82448e+36,0.00182405,-0.0304923,10.0222,-0.153583,-0.490308,-2.67773,-4.11499,0.39502
588,-4.82712e+36,-6.43756e-05,-0.0466008,9.98172,-0.143363,-0.316592,6.45654,-4.12012,0.397705
589,-4.82976e+36,-0.0101785,-0.061729,9.98727,-0.114444,-0.244206,2.94385,-4.12134,0.392578
590,-4.8324e+36,0.00959912,-0.0538752,9.9649,-0.214519,-0.303785,5.13208,-4.11011,0.397217
591,-4.83505e+36,0.00999252,-0.0378457,9.97432,-0.18058,-0.280348,6.90869,-4.10474,0.396484
592,-4.83769e+36,-0.0034549,-0.047903,9.99835,-0.0744094,-0.374762,0.570801,-4.1123,0.394043
593,-4.84033e+36,0.00409858,-0.0350132,9.9947,-0.137087,-0.207783,7.6394,-4.10229,0.394775
594,-4.84297e+36,-0.00807556,-0.0573801,9.99284,-0.264262,-0.274533,-6.25977,-4.10425,0.393555
595,-4.84561e+36,0.00291121,-0.05733,9.97791,-0.207706,-0.409905,5.27271,-4.09717,0.395752
596,-4.84825e+36,0.0130969,-0.0685958,9.98665,-0.183782,-0.324481,-7.31519,-4.09937,0.393066
597,-4.85089e+36,-0.00481386,-0.0745755,9.97972,-0.258499,-0.377759,-1.85425,-4.10327,0.394287
598,-4.85353e+36,-0.002704,-0.0602701,9.9799,-0.212803,-0.235011,1.87769,-4.07739,0.396729
599,-4.85617e+36,-0.00876195,-0.0637601,9.94339,-0.249303,-0.292489,-1.79883,-4.10547,0.393066
600,-4.85881e+36,-0.014334,-0.0596043,9.99674,-0.187675,-0.281757,4.69165,-4.09448,0.397217
601,-4.86145e+36,0.0225241,-0.055485,9.99217,-0.21165,-0.301889,4.28223,-4.10229,0.393066
602,-4.86409e+36,-0.0209291,-0.0693037,9.9858,-0.18076,-0.397021,2.98364,-4.11182,0.39624
603,-4.86674e+36,0.00876223,-0.0544403,9.98892,-0.0936712,-0.367001,-7.65356,-4.12109,0.394043
604,-4.86938e+36,-0.00987826,-0.0471446,9.96207,-0.21977,-0.220513,-5.34888,-4.11816,0.395508
605,-4.87202e+36,0.00202431,-0.0367512,9.99124,-0.135627,-0.341745,-3.72095,-4.15112,0.39624
606,-4.87466e+36,0.0134329,-0.0548198,9.97601,-0.107708,-0.348635,-1.48242,-4.10693,0.393555
607,-4.8773e+36,-0.0202926,-0.0613642,9.99332,-0.222844,-0.311956,6.0188,-4.10645,0.398682
608,-4.87994e+36,-0.0112083,-0.064833,9.97105,-0.199458,-0.354399,-4.78687,-4.10718,0.394043
609,-4.88258e+36,-0.0159936,-0.0599119,9.98226,-0.164418,-0.280092,-4.00806,-4.10107,0.393799
610,-4.88522e+36,-0.0174244,-0.0565577,9.98421,-0.240851,-0.43055,-3.40918,-4.11743,0.394287
611,-4.88786e+36,-0.00180967,-0.078574,9.98161,-0.191979,-0.404423,7.19189,-4.08936,0.394043
612,-4.8905e+36,0.0222024,-0.0582671,9.98131,-0.177968,-0.338005,-5.146,-4.11328,0.396729
613,-4.89314e+36,0.0153928,-0.051422,9.98711,-0.198024,-0.307653,6.14014,-4.0874,0.392578
614,-4.89578e+36,0.0174744,-0.0406925,9.98724,-0.13345,-0.357293,6.44922,-4.11426,0.39624
615,-4.89843e+36,0.0244413,-0.0793751,9.9956,-0.227582,-0.256706,-3.40674,-4.11938,0.396484
616,-4.90107e+36,0.0149923,-0.0595691,9.9852,-0.14262,-0.41326,5.87622,-4.11743,0.393066
617,-4.90371e+36,-0.0054575,-0.0541752,9.95656,-0.0809922,-0.318359,7.03857,-4.09253,0.396973
618,-4.90635e+36,0.000765267,-0.0634104,9.95993,-0.0613205,-0.314901,-4.5022,-4.09277,0.393066
619,-4.90899e+36,0.00683097,-0.0344839,9.98405,-0.23747,-0.397943,-0.199707,-4.12451,0.395752
620,-4.91163e+36,-0.00690233,-0.0497835,9.98603,-0.237367,-0.397046,-2.12622,-4.09619,0.394043
621,-4.91427e+36,0.0156576,-0.0642111,9.97602,-0.164597,-0.372303,-7.45532,-4.1123,0.394775
622,-4.91691e+36,-0.000436323,-0.0429457,9.98601,-0.129096,-0.392794,-0.91748,-4.0979,0.39624
623,-4.91955e+36,0.00390529,-0.0431176,9.98956,-0.208705,-0.340183,-4.87427,-4.12036,0.394043
624,-4.92219e+36,0.00907714,-0.0620578,10.0129,-0.216159,-0.30942,-0.890137,-4.08716,0.394287
625,-4.92483e+36,0.00442761,-0.0670293,9.95805,-0.178557,-0.285471,-5.98804,-4.11133,0.391602
626,-4.92747e+36,-0.0176031,-0.036644,9.96284,-0.260676,-0.328554,1.60596,-4.10156,0.398682
627,-4.93012e+36,0.00587248,-0.0643541,9.98007,-0.169822,-0.28314,-0.409912,-4.09326,0.394043
628,-4.93276e+36,-0.00235334,-0.0759492,9.99111,-0.0787638,-0.382241,-6.70605,-4.09229,0.394043
629,-4.9354e+36,0.023397,-0.0608349,9.98515,-0.243028,-0.289697,7.28833,-4.08301,0.397461
630,-4.93804e+36,0.00695256,-0.0486036,9.98034,-0.139546,-0.317514,-3.37939,-4.1001,0.393555
631,-4.94068e+36,0.0149995,-0.0488182,9.98929,-0.154787,-0.29943,-6.79834,-4.09399,0.39624
632,-4.94332e+36,-0.0314439,-0.0474591,9.95217,-0.147436,-0.433854,2.45044,-4.16797,0.394043
633,-4.94596e+36,-0.0160226,-0.0420447,9.961,-0.15366,-0.235548,-5.90308,-4.09619,0.393799
634,-4.9486e+36,0.00972787,-0.0590467,10.0058,-0.258601,-0.332089,-6.56812,-4.10864,0.396729
635,-4.95124e+36,0.0152999,-0.0572728,9.99286,-0.0723858,-0.324993,-1.02344,-4.09741,0.39209
636,-4.95388e+36,0.0102643,-0.0647118,9.98741,-0.15576,-0.183142,-2.75439,-4.09717,0.395752
637,-4.95652e+36,0.0095705,-0.0727301,10.0129,-0.112472,-0.374813,-7.83276,-4.10474,0.39209
638,-4.95916e+36,0.000350489,-0.0618363,9.99875,-0.117339,-0.297279,-6.12939,-4.09204,0.397217
639,-4.96181e+36,0.00505714,-0.0521297,9.96215,-0.136293,-0.32174,6.16699,-4.13062,0.395508
640,-4.96445e+36,-0.0116951,-0.0497054,10.003,-0.176969,-0.275686,3.03613,-4.11206,0.39502
641,-4.96709e+36,0.011752,-0.0599268,9.96918,-0.203172,-0.35842,2.33472,-4.12842,0.395752
642,-4.96973e+36,-0.0198348,-0.0493761,9.9428,-0.148358,-0.403014,4.96582,-4.10352,0.394531
643,-4.97237e+36,-0.00154501,-0.0536106,9.98253,-0.0872677,-0.227275,6.44678,-4.1123,0.397705
644,-4.97501e+36,0.00082973,-0.0538323,9.9898,-0.162087,-0.288672,-3.20605,-4.11255,0.391602
645,-4.97765e+36,-0.00891959,-0.0391618,9.9647,-0.207219,-0.229247,3.66943,-4.14624,0.395264
646,-4.98029e+36,-0.00262509,-0.0504991,9.9735,-0.0834256,-0.362851,6.4812,-4.09888,0.394287
647,-4.98293e+36,-0.00144487,-0.0654771,9.98605,-0.200124,-0.313288,7.22021,-4.10229,0.393066
648,-4.98557e+36,-0.00910557,-0.0654557,9.9588,-0.210242,-0.252889,-0.431885,-4.10791,0.397705
649,-4.98821e+36,0.00110869,-0.0605488,9.98608,-0.129531,-0.340362,7.79297,-4.09912,0.393066
650,-4.99085e+36,-0.0182612,-0.0612927,9.99583,-0.111448,-0.278273,-1.16309,-4.11035,0.398193
651,-4.9935e+36,0.000135904,-0.0645258,9.98241,-0.114521,-0.356653,2.23413,-4.10059,0.395996
652,-4.99614e+36,0.0109656,-0.0514143,9.96769,-0.191005,-0.281782,-2.28442,-4.09546,0.395996
653,-4.99878e+36,-0.00408422,-0.0743321,9.98791,-0.111191,-0.442383,-7.2417,-4.11523,0.39502
654,-5.00142e+36,-0.0169665,-0.0544188,9.97764,-0.16931,-0.255733,-6.2041,-4.10645,0.393066
655,-5.00406e+36,0.0199348,-0.0556995,9.97289,-0.127175,-0.253376,-2.96265,-4.09814,0.398682
656,-5.0067e+36,0.0056722,-0.0616074,9.96956,-0.189878,-0.37863,4.69653,-4.09839,0.394043
657,-5.00934e+36,-0.00126605,-0.0619436,9.96428,-0.198126,-0.193516,1.86768,-4.10083,0.393311
658,-5.01198e+36,-0.0150639,-0.0773294,9.97359,-0.169771,-0.260369,-6.89844,-4.09741,0.394287
659,-5.01462e+36,-0.00375524,-0.0556062,9.98648,-0.169643,-0.234345,-3.26855,-4.10449,0.395508
660,-5.01726e+36,-0.00118022,-0.0542329,10.0011,-0.220923,-0.208526,-1.49023,-4.10107,0.39624
661,-5.0199e+36,-0.000185974,-0.0429957,9.97012,-0.168977,-0.262469,-1.52979,-4.1106,0.392578
662,-5.02254e+36,-0.0103932,-0.0690252,9.96632,-0.243105,-0.32653,1.63721,-4.09375,0.396729
663,-5.02519e+36,-0.00059387,-0.0584391,9.97905,-0.1762,-0.36905,-3.52539,-4.10913,0.396973
664,-5.02783e+36,0.0134044,-0.0588178,10.0006,-0.245308,-0.376119,-5.89209,-4.104,0.395996
665,-5.03047e+36,0.0102214,-0.0718718,9.98954,-0.0303016,-0.252531,-2.32935,-4.10107,0.396729
666,-5.03311e+36,0.000650909,-0.0463218,9.98112,-0.195693,-0.255886,-0.490234,-4.10376,0.39502
667,-5.03575e+36,-0.000636764,-0.030443,9.99794,-0.121309,-0.359854,-2.02026,-4.09668,0.397217
668,-5.03839e+36,-0.00873352,-0.0546333,9.99962,-0.208013,-0.321049,-6.56567,-4.14185,0.39209
669,-5.04103e+36,0.00293982,-0.0765497,9.99156,-0.267387,-0.151611,-5.63379,-4.10132,0.394287
670,-5.04367e+36,0.0137262,-0.0674373,9.98408,-0.109911,-0.380858,-4.71216,-4.09277,0.395752
671,-5.04631e+36,-0.0172097,-0.0625802,9.97596,-0.12738,-0.342283,5.02393,-4.10767,0.390625
672,-5.04895e+36,0.00698818,-0.0549842,9.97721,-0.161267,-0.359214,2.40845,-4.11304,0.394775
673,-5.05159e+36,-0.0271164,-0.0578307,9.98187,-0.213136,-0.215697,7.40161,-4.12061,0.394531
674,-5.05423e+36,-0.0105218,-0.0504418,9.97968,-0.126355,-0.275046,0.513184,-4.10815,0.395752
675,-5.05688e+36,0.000851188,-0.0504061,9.97935,-0.116289,-0.38429,5.0061,-4.09399,0.393555
676,-5.05952e+36,0.0204857,-0.0506564,10.0044,-0.235856,-0.33342,0.193848,-4.10474,0.393066
677,-5.06216e+36,-0.00658796,-0.0406356,10.0091,-0.191697,-0.283985,1.09351,-4.11084,0.39624
678,-5.0648e+36,0.00674513,-0.057001,10.0011,-0.147589,-0.306295,7.3811,-4.10498,0.394043
679,-5.06744e+36,-0.00868334,-0.053174,9.96317,-0.2377,-0.309497,-3.2522,-4.08594,0.398193
680,-5.07008e+36,0.0170023,-0.0538752,10.01,-0.144413,-0.213956,5.98926,-4.09253,0.396484
681,-5.07272e+36,0.00211724,-0.0594759,9.98842,-0.265389,-0.305091,4.82935,-4.08813,0.395752
682,-5.07536e+36,0.00111597,-0.0655697,9.99751,-0.0986916,-0.307243,6.27246,-4.09985,0.393799
683,-5.078e+36,0.00979224,-0.0414507,9.98304,-0.114854,-0.346023,6.88184,-4.12402,0.393555
684,-5.08064e+36,-0.00135159,-0.0443757,10.02,-0.167363,-0.297304,4.51172,-4.08569,0.395752
685,-5.08328e+36,-0.0237402,-0.0518149,9.98759,-0.17036,-0.370177,4.32739,-4.09668,0.393066
686,-5.08592e+36,-0.00776799,-0.0420659,9.9598,-0.121488,-0.266823,-5.2041,-4.10913,0.396729
687,-5.08857e+36,-0.00168807,-0.0759131,10.003,-0.155504,-0.243643,3.47241,-4.09351,0.396484
688,-5.09121e+36,-0.00763197,-0.0775866,9.97568,-0.158706,-0.402758,4.15503,-4.09375,0.395508
689,-5.09385e+36,0.00372663,-0.0647976,9.97741,-0.176687,-0.248817,-3.3877,-4.09424,0.395264
690,-5.09649e+36,-0.00534317,-0.0542329,9.97606,-0.1647,-0.312545,-0.252686,-4.09302,0.39502
691,-5.09913e+36,-0.0110653,-0.0498694,10.0166,-0.218617,-0.381012,-2.05518,-4.11011,0.396729
692,-5.10177e+36,0.0177391,-0.0489755,9.9828,-0.125484,-0.379859,7.7478,-4.10474,0.394531
693,-5.10441e+36,0.0127893,-0.0293624,9.99616,-0.095413,-0.274585,-5.36743,-4.10449,0.392822
694,-5.10705e+36,-0.00492116,-0.0607419,9.98151,-0.228607,-0.230118,6.49121,-4.10669,0.398438
695,-5.10969e+36,0.00718145,-0.0348916,9.96512,-0.133476,-0.322048,2.00293,-4.09253,0.393066
696,-5.11233e+36,0.00240336,-0.0335325,9.97447,-0.162369,-0.316208,5.59399,-4.10254,0.39624
697,-5.11497e+36,-0.000386474,-0.0648265,9.96668,-0.200559,-0.24623,0.143555,-4.10645,0.394531
698,-5.11761e+36,0.000286114,-0.0472088,9.98897,-0.240057,-0.23519,-0.748291,-4.10645,0.398682
699,-5.12026e+36,-0.00435622,-0.0414509,9.95076,-0.281987,-0.422737,3.71729,-4.11133,0.395996
700,-5.1229e+36,-0.00229606,-0.053539,9.98899,-0.159756,-0.428526,-0.0305176,-4.12549,0.394531
701,-5.12554e+36,-0.00219564,-0.053467,9.97251,-0.207117,-0.324532,5.62402,-4.09375,0.396484
702,-5.12818e+36,0.00260363,-0.0667432,9.98497,-0.273919,-0.323175,-6.9502,-4.12842,0.39209
703,-5.13082e+36,0.0130396,-0.0782593,10.0028,-0.188009,-0.349404,3.02856,-4.1062,0.39917
704,-5.13346e+36,0.0117952,-0.0576231,9.96105,-0.242797,-0.328374,0.133057,-4.09863,0.39209
705,-5.1361e+36,-0.00449914,-0.0737244,9.99978,-0.18683,-0.257858,7.28833,-4.11426,0.393311
706,-5.13874e+36,0.00427025,-0.0516578,9.99077,-0.216517,-0.176328,-7.50439,-4.08374,0.395264
707,-5.14138e+36,0.00295384,-0.0503563,10,-0.289953,-0.29003,-2.94458,-4.11182,0.392578
708,-5.14402e+36,0.00110869,-0.063224,9.97784,-0.193054,-0.342847,6.64722,-4.10547,0.395264
709,-5.14666e+36,-0.00920571,-0.0764925,9.97429,-0.26211,-0.411262,-0.944092,-4.11719,0.39209
710,-5.1493e+36,0.00788243,-0.0638606,9.98317,-0.199228,-0.313826,6.03174,-4.11621,0.394287
711,-5.15195e+36,0.0126391,-0.0597334,9.94829,-0.180222,-0.229171,-7.58423,-4.09424,0.395996
712,-5.15459e+36,0.0137263,-0.0387326,9.98714,-0.144464,-0.456343,3.86011,-4.13159,0.39502
713,-5.15723e+36,-0.00559352,-0.0539253,9.982,-0.160652,-0.42471,-6.82715,-4.11133,0.395264
714,-5.15987e+36,0.00649466,-0.0578167,9.99439,-0.183398,-0.375223,2.22925,-4.09668,0.394043
715,-5.16251e+36,0.0194343,-0.0521371,9.98494,-0.154787,-0.307601,0.442139,-4.09424,0.397705
716,-5.16515e+36,-0.0140053,-0.0590682,10.0097,-0.257116,-0.26854,-5.35156,-4.11621,0.39209
717,-5.16779e+36,-0.000994141,-0.0608633,10.002,-0.19559,-0.400376,-2.1106,-4.10791,0.393311
718,-5.17043e+36,0.00241787,-0.0551624,9.97998,-0.21329,-0.364593,5.97437,-4.08081,0.395264
719,-5.17307e+36,0.00710277,-0.0473304,9.94337,-0.157425,-0.360136,7.42041,-4.09546,0.393555
720,-5.17571e+36,-0.000550769,-0.0465221,9.97479,-0.171667,-0.319896,6.44385,-4.11035,0.398193
721,-5.17835e+36,0.0134545,-0.0450987,9.99821,-0.261752,-0.264569,7.89307,-4.0957,0.39502
722,-5.18099e+36,0.0026537,-0.0528309,9.98744,-0.193592,-0.204094,-6.50024,-4.12061,0.398682
723,-5.18364e+36,0.00737458,-0.0607133,10.0055,-0.191953,-0.252915,-5.35693,-4.1123,0.394531
724,-5.18628e+36,-0.0157149,-0.0635175,10.0153,-0.154172,-0.259114,-5.3042,-4.11255,0.39502
725,-5.18892e+36,0.000557922,-0.0612355,9.99838,-0.139879,-0.273329,-4.84448,-4.10303,0.394775
726,-5.19156e+36,-0.00197418,-0.0572227,9.96741,-0.167568,-0.329143,-6.27026,-4.09644,0.395508
727,-5.1942e+36,0.00123744,-0.0387756,9.95118,-0.149075,-0.319384,-6.521,-4.10498,0.398193
728,-5.19684e+36,0.0257285,-0.0686105,9.99381,-0.211702,-0.319947,6.27246,-4.09985,0.394531
729,-5.19948e+36,0.0104217,-0.0631596,9.96327,-0.193849,-0.2919,-4.7417,-4.10156,0.395264
730,-5.20212e+36,0.00940599,-0.0673226,9.97241,-0.16931,-0.330065,-1.20264,-4.11987,0.395752
731,-5.20476e+36,0.00309003,-0.0373164,10.0099,-0.316285,-0.250277,4.20654,-4.09302,0.393066
732,-5.2074e+36,0.00698833,-0.0593114,9.991,-0.193541,-0.22205,2.72998,-4.11841,0.39624
733,-5.21004e+36,-0.0101068,-0.0521798,9.9679,-0.203377,-0.217286,-7.18359,-4.11938,0.391113
734,-5.21268e+36,0.00218148,-0.0726803,9.9836,-0.210728,-0.424735,-6.95044,-4.09717,0.396729
735,-5.21533e+36,-0.00482817,-0.0567006,9.986,-0.167107,-0.273995,-1.00195,-4.11304,0.39502
736,-5.21797e+36,0.0173528,-0.0400845,9.99111,-0.109347,-0.280732,-5.86523,-4.09326,0.394043
737,-5.22061e+36,0.00738154,-0.0516938,10.0022,-0.245666,-0.311443,-0.730469,-4.08887,0.397217
738,-5.22325e+36,0.00374109,-0.0428379,9.9952,-0.0995113,-0.313211,-5.65942,-4.09033,0.393555
739,-5.22589e+36,0.00455636,-0.0540469,9.99864,-0.193413,-0.332883,1.55347,-4.10132,0.397217
740,-5.22853e+36,0.0118239,-0.0484173,9.9857,-0.246076,-0.3503,2.72388,-4.08228,0.393066
741,-5.23117e+36,-0.0156006,-0.0491188,9.97196,-0.204786,-0.20996,-3.95801,-4.09937,0.395752
742,-5.23381e+36,0.0218089,-0.0524806,9.98349,-0.233243,-0.391027,1.9834,-4.10913,0.395264
743,-5.23645e+36,-0.0179176,-0.0573296,9.98107,-0.20143,-0.347764,1.97314,-4.10132,0.393555
744,-5.23909e+36,-0.00654509,-0.0410433,9.98837,-0.185012,-0.222818,-7.1062,-4.09839,0.39624
745,-5.24173e+36,-0.00657368,-0.0501417,9.97171,-0.257833,-0.275353,-1.62524,-4.08667,0.393066
746,-5.24437e+36,-0.00801118,-0.0505563,9.97178,-0.124639,-0.292976,0.98291,-4.10645,0.397705
747,-5.24702e+36,0.00614429,-0.0509855,9.99879,-0.187368,-0.273867,-1.43481,-4.10327,0.39502
748,-5.24966e+36,-0.0100784,-0.0605774,9.98817,-0.161523,-0.34113,7.02197,-4.11108,0.396484
749,-5.2523e+36,0.0119382,-0.0600476,9.97464,-0.133296,-0.412671,-7.51855,-4.10425,0.397949
750,-5.25494e+36,-0.00135213,-0.033912,10.0159,-0.214903,-0.295614,4.07666,-4.10522,0.393066
751,-5.25758e+36,-0.00148064,-0.044741,9.99192,-0.255784,-0.247254,-3.41187,-4.11548,0.397217
752,-5.26022e+36,-0.00611568,-0.0588607,9.94234,-0.217823,-0.425453,-6.09033,-4.11279,0.394043
753,-5.26286e+36,0.00736028,-0.0582241,9.99873,-0.131042,-0.314312,3.23706,-4.10522,0.394775
754,-5.2655e+36,0.0050213,-0.0698332,10.0169,-0.052125,-0.307012,-0.0625,-4.10962,0.394287
755,-5.26814e+36,0.00570043,-0.0508784,9.98247,-0.319512,-0.201533,4.17676,-4.10181,0.393066
756,-5.27078e+36,0.00630881,-0.0461001,9.9954,-0.0988966,-0.311905,-5.06323,-4.09619,0.397705
757,-5.27342e+36,0.00417011,-0.0422375,9.9754,-0.0854235,-0.247485,-1.30444,-4.09106,0.393555
758,-5.27606e+36,0.0154287,-0.0546906,9.96379,-0.10466,-0.24144,3.22412,-4.09546,0.395752
759,-5.27871e+36,0.0126393,-0.0480023,9.98419,-0.178992,-0.329245,-3.22656,-4.09692,0.39502
760,-5.28135e+36,-0.000307767,-0.0475097,10.0213,-0.0798652,-0.224995,4.5437,-4.10156,0.395508
761,-5.28399e+36,0.027238,-0.055878,10.0074,-0.156196,-0.381037,3.10083,-4.08984,0.396729
762,-5.28663e+36,0.00983523,-0.0711776,10.0077,-0.135064,-0.532443,6.33301,-4.10596,0.393066
763,-5.28927e+36,-0.0100426,-0.0733453,9.99187,-0.150919,-0.488002,3.90723,-4.09668,0.397705
764,-5.29191e+36,0.00440598,-0.0636606,9.97144,-0.18432,-0.336597,3.87793,-4.11401,0.394043
765,-5.29455e+36,-0.00719576,-0.0465936,10.0052,-0.19454,-0.346253,6.49121,-4.10669,0.393311
766,-5.29719e+36,-0.0129896,-0.0447339,9.98345,-0.250866,-0.307448,6.12183,-4.10498,0.396973
767,-5.29983e+36,0.0103645,-0.0440257,9.95703,-0.147128,-0.365157,4.01855,-4.10107,0.393311
768,-5.30247e+36,-0.00374094,-0.0565218,10.0031,-0.131836,-0.321331,4.03931,-4.1167,0.39624
769,-5.30511e+36,-0.0167306,-0.0692898,9.97583,-0.17784,-0.414618,-0.547852,-4.09961,0.391113
770,-5.30775e+36,0.0118737,-0.035614,9.96088,-0.0519969,-0.264723,-4.82397,-4.11865,0.397705
771,-5.3104e+36,-0.000150339,-0.0643974,10.0065,-0.117518,-0.343692,-4.52563,-4.10645,0.394043
772,-5.31304e+36,0.0185831,-0.0695185,10.0003,-0.167953,-0.217465,1.72192,-4.14111,0.394531
773,-5.31568e+36,0.00539324,-0.0534103,9.99195,-0.202301,-0.320562,5.4563,-4.11743,0.39624
774,-5.31972e+36,-0.00673083,-0.0440043,9.95226,-0.206015,-0.443434,-0.371338,-4.11401,0.394043
775,-5.32501e+36,-0.0306928,-0.0310433,9.99186,-0.154864,-0.318308,2.62183,-4.11597,0.396729
776,-5.33029e+36,0.000665214,-0.0466723,9.97398,-0.138855,-0.403501,4.20044,-4.11938,0.393555
777,-5.33557e+36,0.019327,-0.0799044,9.99651,-0.183628,-0.337006,-0.305664,-4.12402,0.394287
778,-5.34085e+36,0.00619443,-0.051121,9.99392,-0.0600654,-0.357703,-0.645508,-4.10498,0.395752
779,-5.34613e+36,-0.0124461,-0.0330822,9.98211,-0.17451,-0.239442,0.0380859,-4.10596,0.393066
780,-5.35141e+36,-0.0190482,-0.0301066,9.99526,-0.201558,-0.35322,7.65771,-4.08472,0.396729
781,-5.3567e+36,-0.00432023,-0.0688245,10.0086,-0.126022,-0.256655,-1.09204,-4.15552,0.392578
782,-5.36198e+36,-0.015586,-0.0761132,9.98507,-0.14472,-0.369818,0.0483398,-4.14502,0.396729
783,-5.36726e+36,-0.00148076,-0.0410505,9.97798,-0.139265,-0.339491,-1.15381,-4.08594,0.395996
784,-5.37254e+36,-0.0008228,-0.0485682,9.97783,-0.145873,-0.275993,3.67871,-4.09058,0.394531
785,-5.37782e+36,-0.0082759,-0.0558783,9.95779,-0.0871909,-0.381908,-3.19263,-4.09106,0.394775
786,-5.3831e+36,0.000371948,-0.0508567,9.98328,-0.163547,-0.383266,-1.23145,-4.09839,0.393066
787,-5.38839e+36,0.0198566,-0.0582309,9.99528,-0.229299,-0.338338,1.60864,-4.10352,0.395264
788,-5.39367e+36,0.0140124,-0.0419657,9.98302,-0.179428,-0.363543,7.12231,-4.13892,0.393555
789,-5.39895e+36,0.0171597,-0.0252853,9.96493,-0.185088,-0.219591,1.91748,-4.09912,0.395996
790,-5.40423e+36,-0.00574384,-0.0672584,10.0052,-0.155658,-0.368333,-6.21729,-4.09668,0.39624
791,-5.40951e+36,-0.00685242,-0.0412719,9.97651,-0.16119,-0.355935,-1.47437,-4.11279,0.39502
792,-5.41479e+36,-0.00945606,-0.0671723,9.97425,-0.107759,-0.256911,2.62036,-4.08374,0.396729
793,-5.42008e+36,0.0040269,-0.0527526,9.99241,-0.108015,-0.264262,3.94385,-4.09277,0.393066
794,-5.42536e+36,0.00209578,-0.0291979,9.99482,-0.145745,-0.341233,3.14844,-4.08618,0.39624
795,-5.43064e+36,0.00756759,-0.0488542,9.96674,-0.181169,-0.422814,6.16455,-4.09741,0.396973
796,-5.43592e+36,-0.00554368,-0.0326532,9.95292,-0.15179,-0.330219,-6.18335,-4.09082,0.394531
797,-5.4412e+36,0.00638735,-0.0556279,10.0015,-0.212957,-0.357677,5.7478,-4.09937,0.395752
798,-5.44648e+36,0.0194485,-0.0663,9.98619,-0.122641,-0.391847,-3.14551,-4.11865,0.393555
799,-5.45177e+36,0.000643756,-0.0518653,9.96702,-0.0451579,-0.368999,6.06958,-4.10474,0.396729
800,-5.45705e+36,-0.0170953,-0.0505921,9.96955,-0.164648,-0.438926,-1.28687,-4.09619,0.393066
801,-5.46233e+36,-0.0238975,-0.0646686,10.008,-0.232526,-0.311443,-3.24707,-4.08984,0.395264
802,-5.46761e+36,0.00231037,-0.0644471,10.0108,-0.22041,-0.288877,-1.96484,-4.09888,0.393799
803,-5.47289e+36,-0.0217661,-0.06856,9.98957,-0.149741,-0.293001,7.58398,-4.1001,0.393066
804,-5.47817e+36,0.00200271,-0.071543,9.97401,-0.123768,-0.406754,2.78809,-4.12256,0.39624
805,-5.48346e+36,0.00639464,-0.0392262,10.0002,-0.15179,-0.240671,7.06421,-4.10352,0.393555
806,-5.48874e+36,0.00459946,-0.0591608,9.97787,-0.203761,-0.34674,-6.03516,-4.11499,0.398682
807,-5.49402e+36,-0.00216741,-0.0614717,9.9781,-0.176892,-0.304451,-4.47534,-4.13599,0.394043
808,-5.4993e+36,-0.0253282,-0.0588107,9.98635,-0.151944,-0.263391,-1.8623,-4.09741,0.396973
809,-5.50458e+36,0.00677372,-0.0622224,9.99978,0.0328503,-0.32466,2.75146,-4.12646,0.39624
810,-5.50986e+36,-0.00875514,-0.0635677,9.96186,-0.0509211,-0.311572,1.44995,-4.10278,0.393066
811,-5.51515e+36,0.0205002,-0.0619217,9.99932,-0.146616,-0.309164,3.22461,-4.09546,0.398193
812,-5.52043e+36,-0.00318302,-0.064347,9.98917,-0.19536,-0.33862,-1.78076,-4.11914,0.394043
813,-5.52571e+36,0.00256787,-0.0571298,9.98729,-0.19892,-0.369434,6.86377,-4.11035,0.39624
814,-5.53099e+36,-0.00217446,-0.0612927,9.99107,-0.0447481,-0.291055,1.26758,-4.12329,0.395264
815,-5.53627e+36,-0.0150353,-0.036129,9.99575,-0.198766,-0.375069,-3.97949,-4.09131,0.392578
816,-5.54155e+36,0.00714569,-0.0392977,9.98389,-0.260548,-0.332217,1.55591,-4.10327,0.397217
817,-5.54684e+36,-0.0107865,-0.0599194,9.96765,-0.139239,-0.461901,6.59155,-4.10327,0.393066
818,-5.55212e+36,0.0131755,-0.0502201,9.95967,-0.194617,-0.404167,-0.733154,-4.11816,0.397705
819,-5.5574e+36,-0.0204786,-0.0426596,9.98126,-0.206553,-0.277735,4.39819,-4.1106,0.394531
820,-5.56268e+36,0.00631596,-0.0409429,10.0023,-0.0601422,-0.315977,-1.67139,-4.09131,0.39502
821,-5.56796e+36,0.00471351,-0.0535822,9.98746,-0.161139,-0.191262,-1.23389,-4.09644,0.396973
822,-5.57324e+36,-0.00633742,-0.0448626,9.98441,-0.178173,-0.25394,-2.646,-4.09961,0.393555
823,-5.57853e+36,-0.0112157,-0.0526235,9.98628,-0.263699,-0.345357,-2.74609,-4.10303,0.397705
824,-5.58381e+36,-0.000650909,-0.054004,9.96021,-0.148639,-0.193336,-3.78662,-4.10986,0.393555
825,-5.58909e+36,-0.00806819,-0.075126,9.98572,-0.173075,-0.258909,4.85742,-4.10107,0.393555
826,-5.59437e+36,-0.02158,-0.0588533,9.96827,-0.130043,-0.26836,7.38086,-4.10498,0.392822
827,-5.59965e+36,-0.00448495,-0.0461147,9.98259,-0.161114,-0.36969,3.6272,-4.09131,0.391602
828,-5.60493e+36,-0.00128036,-0.0720506,9.98743,-0.148742,-0.370074,0.135986,-4.10059,0.396729
829,-5.61022e+36,-0.0159221,-0.0669073,9.97711,-0.124229,-0.351811,-1.95996,-4.10278,0.391113
830,-5.6155e+36,-0.0130969,-0.0727301,9.98607,-0.295768,-0.33383,-2.08838,-4.09326,0.395752
831,-5.62078e+36,0.0113015,-0.0618006,9.99641,-0.174177,-0.27876,-4.78931,-4.10522,0.395996
832,-5.62606e+36,-0.00221738,-0.0718575,10.0096,-0.14034,-0.307294,5.67554,-4.09302,0.394043
833,-5.63134e+36,0.0176675,-0.0603342,9.99807,-0.211113,-0.328477,-2.32153,-4.10693,0.396484
834,-5.63662e+36,-0.00795402,-0.041165,9.99948,-0.0669044,-0.397559,1.30981,-4.11572,0.392578
835,-5.64191e+36,0.00450629,-0.0367942,9.97712,-0.170873,-0.340541,6.84277,-4.09473,0.396729
836,-5.64719e+36,-0.000135904,-0.0319732,9.99025,-0.110653,-0.269539,4.69946,-4.10034,0.393555
837,-5.65247e+36,0.000944175,-0.0379387,10.0048,-0.175534,-0.231706,-3.20068,-4.11646,0.394531
838,-5.65775e+36,-0.00511416,-0.0432316,9.97741,-0.236547,-0.378117,-2.63306,-4.10938,0.397461
839,-5.66303e+36,0.0194486,-0.0467009,9.9801,-0.0684412,-0.383676,7.4231,-4.09741,0.392578
840,-5.66831e+36,0.00229606,-0.0411074,9.95155,-0.136242,-0.361417,0.809326,-4.09399,0.397705
841,-5.6736e+36,-0.0212439,-0.041758,9.94514,-0.0698756,-0.416359,-1.13086,-4.09497,0.394531
842,-5.67888e+36,-0.0132256,-0.0554417,9.98672,-0.193951,-0.398737,-0.540039,-4.10547,0.397705
843,-5.68416e+36,-0.00975648,-0.0660136,9.95889,-0.171667,-0.262956,7.50439,-4.11914,0.397949
844,-5.68944e+36,0.00624443,-0.0556134,9.99152,-0.215749,-0.239211,-0.553223,-4.12695,0.39502
845,-5.69472e+36,-0.00222453,-0.0527451,10.0029,-0.181118,-0.307934,-7.68677,-4.0957,0.393799
846,-5.7e+36,-0.0252424,-0.0455135,9.96915,-0.185524,-0.355474,-5.11914,-4.09399,0.39209
847,-5.70529e+36,0.00831876,-0.0413649,9.97347,-0.164776,-0.307678,-2.07568,-4.09448,0.394775
848,-5.71057e+36,-0.0112371,-0.0602412,9.96468,-0.104122,-0.265235,-5.34888,-4.08691,0.392578
849,-5.71585e+36,-0.0217089,-0.0528094,10.0221,-0.21037,-0.361494,-4.30908,-4.11133,0.395996
850,-5.72113e+36,-0.00821167,-0.055399,9.97571,-0.170591,-0.199791,5.64429,-4.10083,0.395996
851,-5.72641e+36,-0.0161511,-0.0553129,9.9522,-0.182245,-0.124972,4.13647,-4.11133,0.394531
852,-5.73169e+36,-0.00221009,-0.0521869,9.97923,-0.114009,-0.221691,-0.647705,-4.13428,0.395752
853,-5.73698e+36,0.00806125,-0.0507566,10.0009,-0.108246,-0.27648,-2.52759,-4.10986,0.392578
854,-5.74226e+36,0.00220299,-0.0668579,9.96961,-0.0937993,-0.345434,-4.61816,-4.11572,0.397217
855,-5.74754e+36,-0.0129109,-0.0624944,9.99598,-0.135551,-0.259267,1.4209,-4.12012,0.397461
856,-5.75282e+36,0.00190981,-0.0441617,10.0032,-0.0786613,-0.214314,-5.08252,-4.12134,0.39502
857,-5.7581e+36,-0.00457782,-0.0418727,9.97047,-0.137036,-0.211215,-7.77466,-4.10889,0.395508
858,-5.76338e+36,0.0107221,-0.041887,9.97906,-0.148153,-0.25061,7.8562,-4.10718,0.392578
859,-5.76867e+36,-0.00445622,-0.0484605,9.9997,-0.124203,-0.270435,-6.97778,-4.11646,0.398193
860,-5.77395e+36,-0.00417745,-0.0413652,10.0017,-0.166288,-0.263852,-4.63379,-4.104,0.392578
861,-5.77923e+36,-0.00776799,-0.0433391,9.99264,-0.173869,-0.288698,-4.26123,-4.10767,0.395752
862,-5.78451e+36,-0.0161082,-0.0422447,10.004,-0.288006,-0.41034,-0.577148,-4.11694,0.394775
863,-5.78979e+36,0.00766069,-0.0597262,9.97523,-0.177737,-0.230528,1.94849,-4.09131,0.393066
864,-5.79507e+36,-0.0058941,-0.0589897,9.99596,-0.246614,-0.249585,7.79248,-4.13037,0.396729
865,-5.80036e+36,0.00271808,-0.062194,9.96991,-0.181605,-0.394177,2.78027,-4.1167,0.391602
866,-5.80564e+36,0.0113015,-0.0590467,9.98983,-0.190954,-0.346433,5.18433,-4.11035,0.39624
867,-5.81092e+36,-0.0119095,-0.0545976,9.99636,-0.216005,-0.322765,-6.02637,-4.09058,0.39502
868,-5.8162e+36,-0.00499984,-0.0505992,9.97603,-0.206809,-0.38762,2.56128,-4.10986,0.394043
869,-5.82148e+36,0.00283253,-0.0272452,9.99093,-0.212906,-0.229862,2.96777,-4.1001,0.397705
870,-5.82676e+36,-0.00262509,-0.0293267,9.98197,-0.127123,-0.272945,6.63916,-4.09961,0.394043
871,-5.83205e+36,-0.0144627,-0.0464002,9.98574,-0.254016,-0.209166,-4.53076,-4.10254,0.397705
872,-5.83733e+36,-0.00212439,-0.0651052,9.99951,-0.185421,-0.366924,-3.87134,-4.09375,0.394043
873,-5.84261e+36,0.0061586,-0.0499268,9.97389,-0.178378,-0.315977,4.9104,-4.13257,0.394043
874,-5.84789e+36,0.00678846,-0.0538749,9.97563,-0.233269,-0.193003,-4.77393,-4.08569,0.39502
875,-5.85317e+36,0.016716,-0.048847,9.99187,-0.184346,-0.310598,-2.30859,-4.1167,0.394043
876,-5.85845e+36,-0.00215301,-0.050821,9.9651,-0.135576,-0.482444,-0.778076,-4.12378,0.395264
877,-5.86374e+36,0.00806125,-0.0401632,9.98146,-0.213238,-0.323431,-2.11841,-4.10205,0.39209
878,-5.86902e+36,0.00114445,-0.0561355,10.0162,-0.109911,-0.168388,7.62964,-4.18823,0.395752
879,-5.8743e+36,0.00622297,-0.0611926,9.99575,-0.154403,-0.24021,-2.29834,-4.09326,0.393555
880,-5.87958e+36,-0.00386969,-0.065613,10.0071,-0.116289,-0.404526,7.44141,-4.11108,0.393066
881,-5.88486e+36,0.0100214,-0.0502199,9.98307,-0.28296,-0.259421,-2.51587,-4.0874,0.394531
882,-5.89014e+36,0.00301148,-0.0680876,10.016,-0.153967,-0.367359,7.97339,-4.08521,0.393555
883,-5.89543e+36,-0.00454936,-0.0381392,9.97113,-0.219847,-0.368999,4.52173,-4.09351,0.397217
884,-5.90071e+36,-0.00861187,-0.0499194,9.98573,-0.180401,-0.348328,-0.20752,-4.11865,0.39502
885,-5.90599e+36,-0.00887699,-0.0688606,10,-0.298944,-0.128071,4.39575,-4.10864,0.398438
886,-5.91127e+36,0.00092987,-0.0393907,9.98562,-0.125305,-0.387902,0.297119,-4.10327,0.396729
887,-5.91655e+36,-0.0213083,-0.060606,9.99705,-0.225252,-0.351171,1.82227,-4.1377,0.393066
888,-5.92183e+36,-0.0154287,-0.0480886,10.0026,-0.23268,-0.200816,-6.20654,-4.10449,0.398682
889,-5.92712e+36,0.00354767,-0.0571729,10.0053,-0.244744,-0.402656,2.18652,-4.10425,0.392578
890,-5.9324e+36,0.00819716,-0.0756771,10.0029,-0.123076,-0.385648,-6.91553,-4.09229,0.396729
891,-5.93768e+36,0.0193771,-0.053725,10.0085,-0.25043,-0.245179,3.17896,-4.10107,0.395508
892,-5.94296e+36,-0.00711024,-0.0577023,9.97651,-0.179735,-0.161318,2.41333,-4.11694,0.39502
893,-5.94824e+36,-0.0181113,-0.0454996,9.97908,-0.249175,-0.244923,1.17871,-4.0957,0.39624
894,-5.95352e+36,-0.00133758,-0.0879227,9.99395,-0.211522,-0.220641,-4.8252,-4.08643,0.39502
895,-5.95881e+36,-0.0127676,-0.0646543,9.99129,-0.189161,-0.201405,6.94824,-4.09521,0.397705
896,-5.96409e+36,0.0150353,-0.0696258,9.98825,-0.136217,-0.154479,-1.25146,-4.09131,0.392578
897,-5.96937e+36,0.0164801,-0.0441974,9.99061,-0.126355,-0.320588,-5.58105,-4.10156,0.395752
898,-5.97465e+36,-0.00918438,-0.0664144,9.96367,-0.129531,-0.260471,-7.34985,-4.11279,0.396729
899,-5.97993e+36,-0.00924863,-0.063832,10.0004,-0.1835,-0.175714,-7.46069,-4.1084,0.394043
900,-5.98521e+36,-0.000321878,-0.0516793,9.95085,-0.164546,-0.210216,2.25244,-4.11426,0.39624
901,-5.9905e+36,0.0148994,-0.0563572,9.99963,-0.1543,-0.338774,1.12842,-4.09741,0.394043
902,-5.99578e+36,0.00143068,-0.0436678,9.98033,-0.118235,-0.355295,3.14575,-4.08423,0.395752
903,-6.00106e+36,-0.000242806,-0.0681876,10,-0.167389,-0.1835,6.27734,-4.10376,0.395508
904,-6.00634e+36,-0.00205297,-0.0539398,10.0041,-0.0847319,-0.204863,-6.9458,-4.13232,0.394531
905,-6.01162e+36,-0.0268017,-0.0593972,9.97018,-0.160909,-0.304067,6.67041,-4.12305,0.395752
906,-6.0169e+36,-0.0177534,-0.05836,10.0029,-0.083861,-0.390822,-2.47754,-4.10815,0.395508
907,-6.02219e+36,-0.00603003,-0.0572016,9.96209,-0.120669,-0.223074,0.478516,-4.09033,0.397217
908,-6.02747e+36,-0.00057938,-0.0346698,10.0137,-0.200739,-0.29359,3.07104,-4.09863,0.393555
909,-6.03275e+36,0.00875508,-0.0670078,9.98513,-0.208551,-0.308549,-2.38232,-4.10083,0.393799
910,-6.03803e+36,-0.00567936,-0.0747901,9.97458,-0.11091,-0.246563,6.32764,-4.10205,0.395752
911,-6.04331e+36,-0.0193626,-0.0558635,10.0031,-0.255733,-0.322458,-0.962402,-4.10352,0.393066
912,-6.04859e+36,-0.00268947,-0.041229,10.0064,-0.133758,-0.292515,-4.69678,-4.09595,0.396729
913,-6.05388e+36,0.0256644,-0.0751549,9.9935,-0.151022,-0.338774,7.94897,-4.0979,0.392578
914,-6.05916e+36,0.00057938,-0.0534031,9.96572,-0.142876,-0.297945,-5.94556,-4.10376,0.39917
915,-6.06444e+36,-0.00178106,-0.0578021,9.98408,-0.189289,-0.314568,-2.80957,-4.09497,0.395996
916,-6.06972e+36,0.0198633,-0.0570299,9.96489,-0.207962,-0.351888,7.8186,-4.0874,0.394531
917,-6.075e+36,0.0119595,-0.0543976,9.98548,-0.147256,-0.392641,5.00562,-4.09399,0.398193
918,-6.08028e+36,-0.00404136,-0.0478024,9.98816,-0.0404193,-0.30089,-4.18652,-4.09326,0.393066
919,-6.08557e+36,0.0167806,-0.0600624,9.98518,-0.0394972,-0.412364,-7.22876,-4.125,0.397705
920,-6.09085e+36,-0.00125175,-0.0532315,9.98245,-0.194463,-0.312238,6.9187,-4.11255,0.39502
921,-6.09613e+36,-0.0111441,-0.0577807,9.99562,-0.184448,-0.374685,2.26025,-4.08887,0.395996
922,-6.10141e+36,-0.00569366,-0.0665715,9.97505,-0.258089,-0.282397,2.05151,-4.12109,0.396973
923,-6.10669e+36,-0.00351205,-0.0650623,9.97502,-0.165237,-0.441077,7.75024,-4.10669,0.394043
924,-6.11197e+36,0.0057725,-0.0359357,9.98267,-0.183424,-0.246716,-4.61523,-4.11768,0.395752
925,-6.11726e+36,0.0037196,-0.0568291,9.99879,-0.210626,-0.380884,-1.38159,-4.10352,0.394531
926,-6.12254e+36,-0.00871956,-0.0501775,9.9995,-0.242362,-0.325429,2.66797,-4.08008,0.394775
927,-6.12782e+36,0.00203856,-0.0498339,9.98259,-0.190749,-0.229862,6.0293,-4.08301,0.397461
928,-6.1331e+36,0.00296142,-0.0522297,9.99534,-0.112088,-0.302222,-3.1709,-4.09912,0.394531
929,-6.13838e+36,0.0125747,-0.0611568,9.98924,-0.117544,-0.241773,-7.46826,-4.10254,0.398682
930,-6.14366e+36,0.00292533,-0.0611069,9.9695,-0.198562,-0.230451,-7.13574,-4.11572,0.394043
931,-6.14895e+36,-0.00198849,-0.0454778,9.98661,-0.227992,-0.331756,0.81665,-4.09985,0.398193
932,-6.15423e+36,0.00286829,-0.0551127,9.99719,-0.154531,-0.253427,-3.48291,-4.13281,0.390137
933,-6.15951e+36,0.0204786,-0.0524232,9.9727,-0.11862,-0.311392,-1.36377,-4.11719,0.395752
934,-6.16479e+36,-0.00518581,-0.0512358,9.96283,-0.125587,-0.326556,-1.7229,-4.09204,0.395264
935,-6.17007e+36,0.00335481,-0.0534243,9.97894,-0.141134,-0.346125,3.93335,-4.11621,0.39209
936,-6.17535e+36,-0.00962078,-0.0655204,9.99939,-0.177455,-0.278837,-6.46851,-4.10522,0.394775
937,-6.18064e+36,-0.0177319,-0.0472946,9.9837,-0.160678,-0.340618,4.4353,-4.09912,0.39209
938,-6.18592e+36,-0.0159866,-0.0572442,10.0072,-0.171667,-0.311828,5.18457,-4.11035,0.395264
939,-6.1912e+36,-0.00202425,-0.0546263,9.98108,-0.0858077,-0.37343,-5.39648,-4.09058,0.394531
940,-6.19648e+36,0.0212082,-0.0480528,9.95827,-0.200022,-0.337954,0.869629,-4.1001,0.39502
941,-6.20176e+36,-0.00521442,-0.0350275,9.98173,-0.231911,-0.407215,3.96313,-4.09888,0.396484
942,-6.20704e+36,-0.00951349,-0.037653,9.99471,-0.166902,-0.362032,-4.32471,-4.09961,0.392578
943,-6.21233e+36,-0.0166733,-0.0469012,9.98015,-0.196948,-0.290619,-5.10303,-4.10571,0.395752
944,-6.21761e+36,0.00939179,-0.074561,10.0041,-0.158936,-0.378066,4.27148,-4.09448,0.391602
945,-6.22289e+36,0.00547922,-0.0546402,9.99925,-0.110833,-0.27753,-1.65112,-4.09839,0.394531
946,-6.22817e+36,0.0132041,-0.0653913,9.99134,-0.201456,-0.177763,5.55151,-4.11011,0.39624
947,-6.23345e+36,0.00586533,-0.036923,10.0052,-0.179863,-0.2085,-1.58569,-4.1084,0.393066
948,-6.23873e+36,-0.0142555,-0.0430024,9.99492,-0.095413,-0.39574,-2.58521,-4.10571,0.396729
949,-6.24402e+36,0.00297552,-0.071593,9.97885,-0.189366,-0.463771,-0.183594,-4.12866,0.391602
950,-6.2493e+36,0.0143628,-0.056987,9.98242,-0.111832,-0.228172,-4.43555,-4.09521,0.397217
951,-6.25458e+36,0.00707416,-0.0618792,10.0156,-0.158834,-0.195027,-6.83252,-4.10742,0.395508
952,-6.25986e+36,0.0239765,-0.0570293,9.97837,-0.193464,-0.372918,-1.78857,-4.11328,0.395508
953,-6.26514e+36,-0.0246774,-0.0732668,9.9746,-0.106939,-0.402374,1.60864,-4.10352,0.396729
954,-6.27042e+36,0.0102644,-0.0559707,9.97538,-0.131785,-0.397072,-0.938721,-4.12109,0.393555
955,-6.27571e+36,0.00804695,-0.0729518,9.98425,-0.109757,-0.371791,-0.685547,-4.1145,0.394775
956,-6.28099e+36,0.0011943,-0.062502,9.99033,-0.178429,-0.355731,0.922607,-4.10034,0.39502
957,-6.28627e+36,0.00391976,-0.0593042,10.0013,-0.233935,-0.282551,-5.32495,-4.09692,0.396484
958,-6.29155e+36,-0.00995676,-0.0573873,9.96899,-0.168055,-0.438823,4.25928,-4.09326,0.397217
959,-6.29683e+36,-0.00180252,-0.0557206,9.97421,-0.153327,-0.25061,-3.9502,-4.10522,0.394043
960,-6.30211e+36,-0.00853334,-0.0418799,9.98952,-0.185575,-0.340157,3.72217,-4.11523,0.398193
961,-6.3074e+36,-0.00685958,-0.0525305,9.96722,-0.120336,-0.319486,1.0459,-4.1145,0.393066
962,-6.31268e+36,-0.0128393,-0.0588176,9.98386,-0.160729,-0.391975,-0.954346,-4.10938,0.396729
963,-6.31796e+36,0.0125962,-0.048875,9.97202,-0.11196,-0.411211,-4.45581,-4.08813,0.394531
964,-6.32324e+36,-0.00057938,-0.04095,9.99849,-0.154736,-0.179889,-0.33667,-4.10059,0.394043
965,-6.32852e+36,-0.00643041,-0.0715928,9.96317,-0.1981,-0.264672,-4.09155,-4.08594,0.395752
966,-6.3338e+36,-0.00254641,-0.0662711,9.96315,-0.147922,-0.347688,-7.29688,-4.11304,0.393066
967,-6.33909e+36,0.00926293,-0.055549,9.97759,-0.0700293,-0.339593,6.59399,-4.10522,0.401123
968,-6.34437e+36,0.00773938,-0.0466008,9.97973,-0.187624,-0.254426,5.8606,-4.10571,0.393555
969,-6.34965e+36,0.00331892,-0.0600267,9.98695,-0.139674,-0.345075,-1.44507,-4.09546,0.397949
970,-6.35493e+36,-0.00909126,-0.0515505,9.9914,-0.219181,-0.154531,4.12183,-4.09961,0.397705
971,-6.36021e+36,-0.0122455,-0.0582596,9.95106,-0.10571,-0.249252,3.21021,-4.12451,0.393066
972,-6.36549e+36,-0.00171668,-0.0551055,9.97635,-0.198536,-0.295588,-5.52319,-4.10571,0.395752
973,-6.37078e+36,0.00518581,-0.0539825,9.99992,-0.212931,-0.297663,4.13428,-4.10938,0.392578
974,-6.37606e+36,-0.00824024,-0.050478,9.97864,-0.174074,-0.354629,-3.99219,-4.11279,0.395752
975,-6.38134e+36,0.0169807,-0.0523447,9.99767,-0.216799,-0.379629,-0.484619,-4.10767,0.396484
976,-6.38662e+36,0.00398413,-0.0598264,9.97608,-0.19139,-0.401503,-7.16455,-4.09424,0.395996
977,-6.3919e+36,-0.00574367,-0.0859985,9.97407,-0.125228,-0.317258,2.03857,-4.14258,0.397217
978,-6.39718e+36,-0.00936307,-0.0608564,9.98221,-0.096412,-0.347995,0.766602,-4.10156,0.392578
979,-6.40247e+36,-0.0106579,-0.0754556,9.97276,-0.204273,-0.340772,-5.60547,-4.09155,0.397217
980,-6.40775e+36,-0.000529518,-0.0541544,9.99854,-0.21352,-0.277556,2.09229,-4.0813,0.392578
981,-6.41303e+36,-9.2802e-05,-0.0634812,9.99281,-0.259447,-0.361391,1.8457,-4.09277,0.39502
982,-6.41831e+36,0.00437754,-0.0574302,9.96163,-0.197921,-0.333344,-2.84668,-4.10645,0.393311
983,-6.42359e+36,-0.0107794,-0.0478814,9.98824,-0.170668,-0.44246,-4.79736,-4.09937,0.39502
984,-6.42887e+36,-0.00492096,-0.0496045,9.98063,-0.109603,-0.255502,1.94092,-4.1167,0.397217
985,-6.43416e+36,0.00932003,-0.0345056,9.97306,-0.208654,-0.408726,5.48853,-4.10205,0.390625
986,-6.43944e+36,0.0051642,-0.0569656,9.97455,-0.1449,-0.36052,-0.378906,-4.10815,0.396729
987,-6.44472e+36,0.0028826,-0.0865566,9.97394,-0.169003,-0.232475,-4.58813,-4.09839,0.393311
988,-6.45e+36,-0.0125391,-0.0488328,9.97559,-0.188982,-0.279016,5.33521,-4.10522,0.393066
989,-6.45528e+36,0.0034264,-0.0527733,9.99313,-0.123666,-0.252556,-5.50098,-4.09106,0.394775
990,-6.46056e+36,0.0238047,-0.0594759,9.98475,-0.109501,-0.410904,0.4104,-4.10962,0.392578
991,-6.46585e+36,-0.000672495,-0.0326529,9.97555,-0.172794,-0.269846,6.198,-4.1228,0.397705
992,-6.47113e+36,0.00249619,-0.0513651,9.98412,-0.0791224,-0.265748,5.81812,-4.08203,0.396973
993,-6.47641e+36,-0.0121527,-0.0570868,9.97181,-0.195693,-0.359009,0.814697,-4.12915,0.397461
994,-6.48169e+36,-0.00118022,-0.0531528,9.96229,-0.178121,-0.278529,1.70654,-4.09814,0.397217
995,-6.48697e+36,-0.00643745,-0.0121023,9.98742,-0.132118,-0.381934,2.88818,-4.08789,0.392578
996,-6.49225e+36,-0.00208148,-0.045721,10.0084,-0.162189,-0.374198,4.24487,-4.11377,0.397705
997,-6.49754e+36,0.00750333,-0.0517365,9.96018,-0.140443,-0.360136,-6.68164,-4.10229,0.392578
998,-6.50282e+36,-0.0184332,-0.03354,9.99667,-0.231501,-0.228402,-0.655762,-4.09717,0.39624
999,-6.5081e+36,-0.00940599,-0.0567364,9.97003,-0.141852,-0.287853,0.658691,-4.09912,0.394531
1000,-6.51338e+36,-0.00706701,-0.0515362,9.97558,-0.278375,-0.40929,-7.75391,-4.09326,0.394043
1001,-6.51866e+36,0.0162082,-0.0559856,9.94695,-0.135166,-0.298534,1.521,-4.1167,0.398193
1002,-6.52394e+36,0.0183327,-0.066128,9.97779,-0.245743,-0.414515,-4.26123,-4.10767,0.392578
1003,-6.52923e+36,-0.00407712,-0.0514504,10.0067,-0.150227,-0.275122,6.24072,-4.14648,0.397705
1004,-6.53451e+36,0.00914849,-0.0538037,9.96391,-0.181349,-0.211266,-4.375,-4.13257,0.393555
1005,-6.53979e+36,-0.0201996,-0.0702266,9.98684,-0.0753827,-0.259011,-5.62598,-4.13843,0.391846
1006,-6.54507e+36,-0.00573658,-0.0515792,9.98668,-0.178224,-0.332396,-5.18311,-4.12476,0.394775
1007,-6.55035e+36,0.00254627,-0.0616077,9.9494,-0.175201,-0.364465,-3.61792,-4.08716,0.395508
1008,-6.55563e+36,0.00560068,-0.0711922,9.95821,-0.077816,-0.265799,0.822021,-4.10376,0.398682
1009,-6.56092e+36,-0.0130682,-0.0743109,9.98101,-0.159679,-0.273637,-0.856689,-4.104,0.393555
1010,-6.5662e+36,0.00128025,-0.0791035,9.96192,-0.210908,-0.420739,-7.71924,-4.11108,0.395752
1011,-6.57148e+36,-7.15284e-06,-0.0524518,9.9792,-0.176969,-0.366002,-0.891357,-4.08618,0.394043
1012,-6.57676e+36,0.00700979,-0.0412147,9.96819,-0.153122,-0.432163,2.38477,-4.09546,0.394531
1013,-6.58204e+36,0.00846181,-0.068889,9.96744,-0.221922,-0.348021,-7.83789,-4.13208,0.396729
1014,-6.58732e+36,0.0279891,-0.0654414,9.985,-0.203531,-0.258934,-7.49097,-4.09351,0.39502
1015,-6.59261e+36,-0.0128465,-0.0513431,10.0166,-0.219309,-0.294641,-1.21338,-4.11206,0.395752
1016,-6.59789e+36,-0.00738173,-0.0692181,9.99392,-0.129685,-0.244872,2.49023,-4.09595,0.393066
1017,-6.60317e+36,-0.00110869,-0.0532887,10.0142,-0.275148,-0.298688,6.49683,-4.1106,0.396484
1018,-6.60845e+36,-0.00888383,-0.0570153,9.99251,-0.14326,-0.224586,6.91846,-4.11255,0.396729
1019,-6.61373e+36,-0.0105647,-0.0625874,9.98513,-0.0613461,-0.208679,-4.51514,-4.11426,0.393555
1020,-6.61901e+36,-0.00248194,-0.0501055,10.0034,-0.149536,-0.266465,-7.94873,-4.12769,0.39624
1021,-6.6243e+36,-0.00228158,-0.0610134,9.99216,-0.180196,-0.385878,6.7605,-4.11182,0.391602
1022,-6.62958e+36,0.0116307,-0.0539751,10.0082,-0.192542,-0.340746,-1.72144,-4.09302,0.394287
1023,-6.63486e+36,-0.0140267,-0.0475593,10.0023,-0.25563,-0.273919,7.02417,-4.11304,0.396973
1024,-6.64014e+36,-0.00694541,-0.0599337,9.97966,-0.1647,-0.320075,-7.76929,-4.11279,0.393555
1025,-6.64542e+36,0.000264445,-0.0769004,9.99542,-0.241465,-0.211574,-3.09473,-4.11694,0.397217
1026,-6.6507e+36,0.0102858,-0.0546191,9.98271,-0.151559,-0.368666,6.06885,-4.10474,0.394043
1027,-6.65599e+36,0.0106006,-0.0421229,9.98671,-0.171359,-0.306449,-7.98584,-4.13916,0.39917
1028,-6.66127e+36,0.0118236,-0.0625945,9.98983,-0.106453,-0.290158,-6.81055,-4.09277,0.396484
1029,-6.66655e+36,-0.00505695,-0.0681807,9.96849,-0.148204,-0.266234,3.31323,-4.12305,0.393311
1030,-6.67183e+36,-0.0048997,-0.0610924,9.96868,-0.0779953,-0.258243,4.5166,-4.0896,0.394775
1031,-6.67711e+36,-5.00699e-05,-0.054333,9.99065,-0.0902646,-0.273534,-2.77075,-4.09302,0.39209
1032,-6.68239e+36,0.00794681,-0.0472016,10.0015,-0.160115,-0.35299,1.84155,-4.08984,0.395752
1033,-6.68768e+36,0.00156647,-0.0432389,9.97442,-0.110679,-0.218182,-5.13037,-4.09375,0.394043
1034,-6.69296e+36,0.0127608,-0.069232,9.9934,-0.108835,-0.364772,0.143799,-4.10645,0.394287
1035,-6.69824e+36,-0.00169522,-0.0498839,10.0001,-0.178711,-0.273381,3.94507,-4.09375,0.393311
1036,-6.70352e+36,0.00746757,-0.0622226,9.98289,-0.121104,-0.2742,7.42041,-4.09546,0.392578
1037,-6.7088e+36,0.000507852,-0.0654843,10.0198,-0.199561,-0.309727,-3.76685,-4.09326,0.400146
1038,-6.71408e+36,-0.00819001,-0.0667789,9.97988,-0.144515,-0.358164,6.78979,-4.09448,0.393066
1039,-6.71937e+36,0.0111511,-0.0656348,9.95151,-0.174126,-0.261009,-1.2688,-4.10986,0.394287
1040,-6.72465e+36,-0.011509,-0.0544549,9.97675,-0.0755108,-0.414028,-1.93506,-4.09009,0.394043
1041,-6.72993e+36,-0.0119813,-0.030593,9.97009,-0.205708,-0.175125,5.51172,-4.11963,0.393066
1042,-6.73521e+36,0.00195293,-0.0453629,9.97822,-0.159525,-0.317591,6.375,-4.09839,0.395264
1043,-6.74049e+36,-0.000844035,-0.0369444,9.99329,-0.219181,-0.259677,6.2749,-4.10181,0.394043
1044,-6.74577e+36,-0.00404136,-0.0589966,9.98005,-0.129249,-0.116468,7.98071,-4.09106,0.397705
1045,-6.75106e+36,0.000622297,-0.0667217,9.99246,-0.232424,-0.251711,-0.0200195,-4.10205,0.393555
1046,-6.75634e+36,-0.00173101,-0.0630311,9.9762,-0.0347073,-0.45245,-2.89185,-4.11206,0.395264
1047,-6.76162e+36,-0.0211724,-0.0367728,9.99618,-0.155222,-0.28629,1.91504,-4.09717,0.397949
1048,-6.7669e+36,0.00959196,-0.0535605,9.96679,-0.150535,-0.204811,6.80811,-4.10815,0.392578
1049,-6.77218e+36,0.00861935,-0.0523442,9.97972,-0.186215,-0.302478,6.76343,-4.11377,0.395752
1050,-6.77746e+36,0.00797542,-0.0710492,9.98295,-0.106453,-0.270614,7.31445,-4.09497,0.392578
1051,-6.78275e+36,-0.00595117,-0.0474162,9.96775,-0.134398,-0.268745,3.92871,-4.1123,0.396729
1052,-6.78803e+36,0.00189582,-0.0438539,9.973,-0.224509,-0.0953874,-6.38916,-4.125,0.394531
1053,-6.79331e+36,0.0104718,-0.055363,9.98881,-0.284651,-0.268232,1.15723,-4.1189,0.394775
1054,-6.79859e+36,0.0134974,-0.0586819,9.96477,-0.212547,-0.259651,3.49585,-4.10254,0.394775
1055,-6.80387e+36,0.0109154,-0.0821358,10.0028,-0.081274,-0.220872,-6.75757,-4.09302,0.394043
1056,-6.80915e+36,0.00127302,-0.053339,10.0059,-0.163086,-0.260599,-5.62842,-4.10522,0.397217
1057,-6.81444e+36,0.00376942,-0.0400132,9.9823,-0.197998,-0.372354,3.85718,-4.09839,0.39209
1058,-6.81972e+36,0.00150925,-0.0559996,9.95083,-0.151047,-0.328964,6.53418,-4.09912,0.396729
1059,-6.825e+36,-0.00752486,-0.0645832,9.97674,-0.193977,-0.478602,6.25098,-4.12305,0.395996
1060,-6.83028e+36,0.00361231,-0.0616787,10.0057,-0.14034,-0.288698,-6.4021,-4.11523,0.395996
1061,-6.83556e+36,0.0185187,-0.0458712,9.97422,-0.166441,-0.344435,-5.57324,-4.10742,0.397217
1062,-6.84084e+36,0.00263195,-0.0431033,9.97875,-0.216056,-0.190339,-4.12134,-4.09473,0.394043
1063,-6.84613e+36,0.0020028,-0.0565647,9.98945,-0.246563,-0.32215,7.2124,-4.09644,0.398682
1064,-6.85141e+36,-0.000171668,-0.0583314,9.9712,-0.277018,-0.309113,3.41748,-4.09131,0.391602
1065,-6.85669e+36,0.0143987,-0.06444,9.9942,-0.243258,-0.384137,-6.44702,-4.12085,0.396484
1066,-6.86197e+36,0.000937022,-0.0512215,10.0172,-0.158398,-0.315644,-3.2417,-4.09375,0.397217
1067,-6.86725e+36,-0.00958459,-0.0679873,10.0063,-0.110218,-0.240492,6.86597,-4.1123,0.392578
1068,-6.87253e+36,-0.00751049,-0.0507709,9.97737,-0.0711563,-0.189981,-4.90015,-4.10083,0.395752
1069,-6.87782e+36,-0.000658062,-0.0441187,10.0047,-0.220436,-0.331704,6.32495,-4.13135,0.394043
1070,-6.8831e+36,0.0101357,-0.0562927,9.98191,-0.17807,-0.304809,-5.84253,-4.13354,0.395264
1071,-6.88838e+36,0.00548623,-0.0414865,9.96239,-0.15991,-0.301351,-5.83716,-4.13745,0.395508
1072,-6.89366e+36,-0.0108509,-0.0539539,9.98671,-0.290337,-0.341719,5.98315,-4.08765,0.39502
1073,-6.89894e+36,0.0103575,-0.0756124,9.9833,-0.133809,-0.253478,5.43823,-4.10376,0.397217
1074,-6.90422e+36,-0.00660224,-0.0733384,10.0062,-0.144746,-0.281654,6.5415,-4.10498,0.39502
1075,-6.90951e+36,-0.00787528,-0.0672224,9.97528,-0.140417,-0.23478,-2.82471,-4.0918,0.398682
1076,-6.91479e+36,-0.0185259,-0.0641825,9.97775,-0.11634,-0.348072,-7.00098,-4.09888,0.393066
1077,-6.92007e+36,-0.00716686,-0.0549407,9.98114,-0.243412,-0.273304,4.54614,-4.10352,0.394531
1078,-6.92535e+36,-0.00647332,-0.0536606,9.9885,-0.092826,-0.199894,2.38525,-4.09546,0.395508
1079,-6.93063e+36,0.00949182,-0.0564073,9.96933,-0.147922,-0.33214,4.48633,-4.09741,0.394043
1080,-6.93591e+36,-0.00413425,-0.0591967,9.97912,-0.174049,-0.380653,0.301758,-4.10718,0.397217
1081,-6.9412e+36,-0.00228156,-0.0483029,9.97569,-0.17159,-0.241081,2.39771,-4.10522,0.392578
1082,-6.94648e+36,-0.0116235,-0.0586178,9.99605,-0.182143,-0.341591,-1.83374,-4.08765,0.395752
1083,-6.95176e+36,-0.0108151,-0.0579666,9.96488,-0.256578,-0.222229,2.22583,-4.09473,0.395264
1084,-6.95704e+36,0.00542901,-0.0459999,9.99929,-0.253709,-0.225175,3.10327,-4.0918,0.394531
1085,-6.96232e+36,0.00366226,-0.0523874,9.95154,-0.217439,-0.248381,7.74756,-4.10474,0.395752
1086,-6.9676e+36,0.0223455,-0.0431388,9.95823,-0.177046,-0.366898,7.84009,-4.09546,0.39209
1087,-6.97289e+36,0.00348343,-0.0706915,9.99328,-0.126073,-0.315798,-0.0673828,-4.10571,0.398682
1088,-6.97817e+36,0.0110583,-0.0561427,9.99884,-0.036321,-0.387441,0.636963,-4.12231,0.39502
1089,-6.98345e+36,-0.0110011,-0.054755,9.98715,-0.134628,-0.270256,-0.0625,-4.10962,0.394531
1090,-6.98873e+36,-0.000235964,-0.0517435,10.0142,-0.180913,-0.405883,4.35327,-4.11621,0.398193
1091,-6.99401e+36,-0.00195273,-0.0381461,9.97622,-0.261086,-0.196512,5.80493,-4.10352,0.391602
1092,-6.99929e+36,-0.00703109,-0.0423517,9.97638,-0.212726,-0.324788,7.5625,-4.12329,0.398682
1093,-7.00458e+36,0.00826869,-0.0620509,9.96594,-0.155504,-0.235779,-1.85425,-4.10327,0.393066
1094,-7.00986e+36,-0.000250349,-0.0358,9.99095,-0.198433,-0.1762,0.935303,-4.11011,0.39624
1095,-7.01514e+36,0.00124459,-0.0547407,10.0032,-0.154505,-0.403014,-5.10864,-4.10181,0.393555
1096,-7.02042e+36,-0.0100211,-0.0530455,9.98734,-0.266209,-0.261496,-6.28613,-4.09229,0.395996
1097,-7.0257e+36,0.00550751,-0.0496266,9.99953,-0.267054,-0.301198,0.861816,-4.12549,0.395264
1098,-7.03098e+36,-0.00210284,-0.0606416,9.97762,-0.188034,-0.395919,-4.09814,-4.1123,0.395508
1099,-7.03627e+36,-0.00374117,-0.0571586,9.97234,-0.172461,-0.155222,3.43262,-4.09448,0.39624
1100,-7.04155e+36,-0.00823999,-0.0508422,9.99293,-0.129019,-0.379372,1.23389,-4.0979,0.394043
1101,-7.04683e+36,-0.00160951,-0.0375169,9.97649,-0.217798,-0.414157,1.5083,-4.10693,0.393555
1102,-7.05211e+36,-0.000128751,-0.0347271,9.99671,-0.117774,-0.418998,0.771729,-4.10547,0.393799
1103,-7.05739e+36,0.00859056,-0.0250421,9.98191,-0.15325,-0.243284,-7.4397,-4.09277,0.395508
1104,-7.06267e+36,-0.0010014,-0.0513431,9.98535,-0.0937481,-0.321459,7.05884,-4.09961,0.397217
1105,-7.06796e+36,0.0115948,-0.0632454,9.96241,-0.253837,-0.320306,0.585693,-4.0918,0.393555
1106,-7.07324e+36,-0.0104572,-0.0615283,9.99109,-0.1647,-0.32402,-7.47852,-4.09473,0.395264
1107,-7.07852e+36,-0.0213083,-0.0511714,9.99195,-0.111729,-0.297458,3.02612,-4.10425,0.394043
1108,-7.0838e+36,0.0218088,-0.0545552,9.96222,-0.16306,-0.363953,2.71167,-4.10474,0.396973
1109,-7.08908e+36,-0.014227,-0.0668076,9.95638,-0.174638,-0.346894,-7.38818,-4.09204,0.39917
1110,-7.09436e+36,0.000193127,-0.0482173,9.95437,-0.151073,-0.259088,6.54907,-4.11084,0.393066
1111,-7.09965e+36,-0.0140412,-0.0500273,9.99173,-0.204017,-0.381575,-5.34546,-4.08984,0.398682
1112,-7.10493e+36,0.00754638,-0.0609062,10.0014,-0.228172,-0.383189,-3.68628,-4.10645,0.39502
1113,-7.11021e+36,-0.0112157,-0.046937,9.99176,-0.192337,-0.292156,6.90576,-4.10278,0.394287
1114,-7.11549e+36,0.0165159,-0.0677589,9.9733,-0.118824,-0.269641,-0.48999,-4.10376,0.39624
1115,-7.12077e+36,0.0150066,-0.0517796,9.98302,-0.176252,-0.410545,-6.14355,-4.11255,0.394043
1116,-7.12605e+36,-0.0200423,-0.0473375,9.97027,-0.133962,-0.364183,-7.71143,-4.11694,0.394775
1117,-7.13134e+36,0.00215301,-0.069261,9.98508,-0.215441,-0.322381,-5.13916,-4.08691,0.391602
1118,-7.13662e+36,0.00663069,-0.0524089,9.96701,-0.100254,-0.263827,5.20435,-4.09375,0.394775
1119,-7.1419e+36,-0.0181754,-0.0518581,9.97748,-0.192235,-0.311034,-0.524414,-4.11719,0.39502
1120,-7.14718e+36,-0.000336184,-0.0520798,9.99494,-0.119414,-0.455703,-5.87671,-4.11572,0.393066
1121,-7.15246e+36,0.000121746,-0.0241263,9.97372,-0.218694,-0.329911,-6.90137,-4.09546,0.397705
1122,-7.15774e+36,-0.00211009,-0.0584888,10.0059,-0.139905,-0.365285,1.34961,-4.1062,0.39502
1123,-7.16303e+36,-0.013197,-0.0504633,9.96272,-0.215877,-0.392256,-7.94873,-4.09644,0.396729
1124,-7.16831e+36,0.00321865,-0.0706989,9.97236,-0.218387,-0.39597,-0.542725,-4.10352,0.393555
1125,-7.17359e+36,0.0122671,-0.0667289,9.96103,-0.0916477,-0.379475,6.54932,-4.11084,0.393066
1126,-7.17887e+36,0.00731736,-0.0526735,9.97089,-0.142594,-0.307883,-7.20166,-4.10571,0.397217
1127,-7.18415e+36,-0.00165946,-0.0422733,9.97351,-0.11383,-0.283293,6.7207,-4.09009,0.391602
1128,-7.18943e+36,-0.0015883,-0.0350708,9.97189,-0.176687,-0.211907,7.43848,-4.10913,0.398193
1129,-7.19472e+36,-0.0147849,-0.0580024,9.97928,-0.0956948,-0.292771,6.61499,-4.0896,0.393066
1130,-7.2e+36,-0.000114445,-0.0764567,9.99455,-0.104224,-0.163521,1.84302,-4.09082,0.39624
1131,-7.20528e+36,-0.00934852,-0.0559062,9.96626,-0.133092,-0.229529,-0.0541992,-4.11548,0.395508
1132,-7.21056e+36,0.0007154,-0.0381672,9.99011,-0.128712,-0.390207,1.67676,-4.11548,0.395996
1133,-7.21584e+36,-0.000722227,-0.0544614,9.97508,-0.225149,-0.321279,-5.8269,-4.11401,0.396484
1134,-7.22112e+36,-0.018297,-0.062759,9.97579,-0.147077,-0.305655,6.31763,-4.09424,0.393555
1135,-7.22641e+36,-0.00619462,-0.0611573,9.98991,-0.142697,-0.289748,-3.93604,-4.08472,0.397705
1136,-7.23169e+36,-0.00705986,-0.0581455,10.0029,-0.20412,-0.249047,-6.65332,-4.09253,0.393066
1137,-7.23697e+36,-0.00641621,-0.0646978,9.96787,-0.111166,-0.37343,-4.25391,-4.11353,0.39502
1138,-7.24225e+36,-0.00155217,-0.054333,9.98812,-0.144592,-0.233704,-6.63428,-4.09863,0.394775
1139,-7.24753e+36,-0.000464935,-0.0711136,9.99127,-0.155965,-0.35924,-3.62793,-4.1106,0.394043
1140,-7.25281e+36,-0.0105647,-0.07371,9.99726,-0.152738,-0.269615,6.20093,-4.09351,0.394775
1141,-7.2581e+36,0.0138623,-0.0434458,9.98587,-0.0940043,-0.36029,0.428711,-4.09204,0.394043
1142,-7.26338e+36,0.00245343,-0.0391189,10.0068,-0.116007,-0.205964,-1.63525,-4.11011,0.39624
1143,-7.26866e+36,-0.0169952,-0.0678447,9.95931,-0.14846,-0.336648,4.52051,-4.09253,0.39624
1144,-7.27394e+36,-0.00102286,-0.0572442,9.98266,-0.159295,-0.235625,-6.94849,-4.09912,0.394043
1145,-7.27922e+36,0.0067952,-0.0483318,9.99171,-0.245948,-0.318718,3.36084,-4.11938,0.39624
1146,-7.2845e+36,0.0131471,-0.0476449,9.96392,-0.234908,-0.335213,-2.49243,-4.09644,0.394531
1147,-7.28979e+36,0.00386969,-0.0616003,9.97869,-0.190416,-0.251737,3.50879,-4.1123,0.396729
1148,-7.29507e+36,-0.00531433,-0.0738169,9.99903,-0.160063,-0.336827,-2.50903,-4.09229,0.397461
1149,-7.30035e+36,-0.0117307,-0.0626947,9.97954,-0.238622,-0.277223,4.1499,-4.08984,0.396484
1150,-7.30563e+36,-0.00331177,-0.0775154,9.98237,-0.1251,-0.365029,-7.51538,-4.1062,0.397217
1151,-7.31091e+36,0.00688819,-0.0425022,9.98105,-0.169822,-0.322406,-4.50073,-4.09375,0.394043
1152,-7.31619e+36,0.00389097,-0.0591258,9.97342,-0.164085,-0.374045,3.50366,-4.1084,0.397217
1153,-7.32148e+36,0.0129538,-0.0561927,9.99874,-0.151175,-0.180222,-5.46777,-4.10791,0.393066
1154,-7.32676e+36,0.0037624,-0.0529668,9.99567,-0.252889,-0.340669,2.8623,-4.13086,0.393799
1155,-7.33204e+36,0.00819001,-0.0695113,9.98949,-0.223305,-0.455267,-3.72461,-4.08569,0.393555
1156,-7.33732e+36,0.0145845,-0.0453779,9.97522,-0.194438,-0.431882,-4.94507,-4.10645,0.393066
1157,-7.3426e+36,0.0138262,-0.0477599,9.98256,-0.179607,-0.233935,-6.44214,-4.09351,0.398682
1158,-7.34788e+36,-0.0179606,-0.0603839,9.99122,-0.146718,-0.302581,-6.68701,-4.09839,0.393066
1159,-7.35317e+36,-0.00277546,-0.0637393,9.99037,-0.159858,-0.318334,7.02173,-4.11108,0.39917
1160,-7.35845e+36,-0.00512859,-0.0599051,9.97412,-0.174202,-0.309804,-1.90991,-4.10107,0.395508
1161,-7.36373e+36,-0.0215444,-0.0515505,9.97341,-0.114137,-0.332063,-0.590332,-4.10718,0.39502
1162,-7.36901e+36,-0.0289046,-0.0552557,9.96089,-0.249713,-0.427322,2.17651,-4.09644,0.396729
1163,-7.37429e+36,0.00332607,-0.0576591,10.0032,-0.196256,-0.307448,4.71265,-4.11011,0.393066
1164,-7.37957e+36,0.0135117,-0.0604773,9.97691,-0.255937,-0.26106,-0.374023,-4.11206,0.397705
1165,-7.38486e+36,-0.0104645,-0.0577734,9.96912,-0.202839,-0.280886,2.86743,-4.13477,0.394043
1166,-7.39014e+36,-0.00582957,-0.0690178,9.97224,-0.122641,-0.441077,6.60986,-4.11694,0.392334
1167,-7.39542e+36,0.00786794,-0.0599196,9.98283,-0.182348,-0.266132,1.09131,-4.10889,0.397461
1168,-7.4007e+36,-0.00748903,-0.0475163,9.97118,-0.187752,-0.301684,2.54565,-4.09814,0.393066
1169,-7.40598e+36,0.0157863,-0.0457067,9.98838,-0.189392,-0.254606,7.22485,-4.1062,0.398193
1170,-7.41126e+36,0.0141984,-0.0477738,9.98476,-0.0793273,-0.380371,2.55103,-4.10205,0.394043
1171,-7.41655e+36,0.00766069,-0.0572514,9.98303,-0.154198,-0.380397,4.65674,-4.10791,0.397217
1172,-7.42183e+36,-0.00448483,-0.063367,9.98169,-0.175637,-0.301838,4.70435,-4.10425,0.39502
1173,-7.42711e+36,0.0113443,-0.0570513,9.96455,-0.203403,-0.376401,3.55615,-4.10864,0.394531
1174,-7.43239e+36,0.000314823,-0.0818069,9.97179,-0.20768,-0.384956,-3.46729,-4.11328,0.395264
1175,-7.43767e+36,-0.0119095,-0.0384537,9.96825,-0.183936,-0.312622,7.55469,-4.11743,0.393066
1176,-7.44295e+36,-0.000822577,-0.0453204,9.95648,-0.111704,-0.310675,1.98584,-4.14233,0.397705
1177,-7.44824e+36,-0.0308357,-0.0533957,10.0001,-0.226097,-0.334522,7.87549,-4.09058,0.391113
1178,-7.45352e+36,0.0321163,-0.0523588,9.96741,-0.153148,-0.324609,-0.20752,-4.0874,0.395752
1179,-7.4588e+36,0.0192057,-0.0609633,9.98623,-0.209909,-0.272382,-7.79224,-4.09521,0.396973
1180,-7.46408e+36,0.0110225,-0.0529453,10.0034,-0.181272,-0.30732,5.13452,-4.11206,0.396484
1181,-7.46936e+36,0.00182398,-0.0442976,10.0006,-0.202071,-0.364132,4.9917,-4.12305,0.398682
1182,-7.47464e+36,-0.0178534,-0.0531596,9.95919,-0.177046,-0.473377,-3.29468,-4.09351,0.393066
1183,-7.47993e+36,-0.00303299,-0.0447127,9.98988,-0.193234,-0.281296,-6.61597,-4.1123,0.398682
1184,-7.48521e+36,0.0114518,-0.055992,10.0053,-0.0842708,-0.348661,-3.39966,-4.09302,0.392578
1185,-7.49049e+36,0.015865,-0.0579166,10.0087,-0.17118,-0.373148,0.684326,-4.11865,0.394043
1186,-7.49577e+36,-0.00399832,-0.0558706,9.97134,-0.202916,-0.428629,-2.01001,-4.10449,0.395264
1187,-7.50105e+36,0.0023819,-0.0661495,10.0038,-0.160857,-0.310393,-7.86206,-4.09082,0.391602
1188,-7.50633e+36,0.0165374,-0.0563787,9.99231,-0.203531,-0.325992,-2.4668,-4.11597,0.398193
1189,-7.51162e+36,0.00612283,-0.0481458,10.0005,-0.0941067,-0.320537,-7.45532,-4.1123,0.390625
1190,-7.5169e+36,-0.0137263,-0.0650551,9.98641,-0.12387,-0.3534,2.23926,-4.10449,0.395264
1191,-7.52218e+36,-0.00376944,-0.0514286,9.96613,-0.122743,-0.342642,-6.03296,-4.11694,0.396484
1192,-7.52746e+36,0.00082973,-0.0535176,9.97318,-0.209166,-0.280911,7.84839,-4.10132,0.394043
1193,-7.53274e+36,0.00375542,-0.040499,9.9606,-0.132093,-0.312033,-7.16211,-4.09619,0.398193
1194,-7.53802e+36,-0.0247918,-0.0537465,9.99297,-0.234088,-0.26334,-7.67944,-4.10156,0.393066
1195,-7.54331e+36,-0.0161226,-0.0453779,10.0166,-0.137344,-0.321894,6.77319,-4.12158,0.398682
1196,-7.54859e+36,0.00220308,-0.0661924,9.99303,-0.146027,-0.376965,-7.98535,-4.10791,0.393555
1197,-7.55387e+36,-0.00561498,-0.0582027,10.0139,-0.113317,-0.30235,5.12427,-4.10425,0.393066
1198,-7.55915e+36,0.000329031,-0.078624,9.96531,-0.0683388,-0.284984,-5.948,-4.13306,0.39624
1199,-7.56443e+36,-0.0166304,-0.0637676,9.99422,-0.0926211,-0.335751,-1.82593,-4.09351,0.393066
1200,-7.56971e+36,0.0210508,-0.0564288,9.97407,-0.0110654,-0.37968,-3.83618,-4.11157,0.393311
1201,-7.575e+36,0.0101356,-0.0565861,9.96551,-0.0398557,-0.196,5.43823,-4.10376,0.39209
1202,-7.58028e+36,0.0135546,-0.0572871,9.98918,-0.00422635,-0.297612,-5.61841,-4.11304,0.395264
1203,-7.58556e+36,-0.007675,-0.0446337,9.97056,-0.132374,-0.313493,2.63354,-4.09351,0.397705
1204,-7.59084e+36,0.00293994,-0.0593825,9.97873,-0.104813,-0.334829,2.02588,-4.10156,0.394043
1205,-7.59612e+36,-0.0149494,-0.0296771,9.99897,-0.198715,-0.284369,-1.11548,-4.10669,0.395264
1206,-7.6014e+36,-0.0017596,-0.045628,9.9868,-0.17912,-0.298585,7.48438,-4.10352,0.393066
1207,-7.60669e+36,-0.0198062,-0.0572156,9.97646,-0.213495,-0.312186,2.44507,-4.10156,0.398682
1208,-7.61197e+36,-0.0133045,-0.0440118,9.96187,-0.19121,-0.272459,7.16699,-4.10205,0.394531
1209,-7.61725e+36,0.0142986,-0.0585601,9.98011,-0.150253,-0.352862,2.26294,-4.09082,0.395264
1210,-7.62253e+36,0.00469942,-0.0621797,9.96038,-0.116801,-0.295819,7.48438,-4.10352,0.394775
1211,-7.62781e+36,0.0156433,-0.0537894,9.99126,-0.186036,-0.295972,1.15942,-4.0896,0.392578
1212,-7.63309e+36,0.00452787,-0.0487676,9.9847,-0.0916734,-0.368691,-1.28662,-4.09619,0.398682
1213,-7.63838e+36,0.0155075,-0.0643464,9.96348,-0.0994089,-0.398353,-2.65137,-4.0957,0.393066
1214,-7.64366e+36,0.0112801,-0.0353059,9.96279,-0.0738202,-0.333267,4.09692,-4.0896,0.39624
1215,-7.64894e+36,-0.00251065,-0.0551413,9.9905,-0.198587,-0.276326,-3.94482,-4.10913,0.393066
1216,-7.65422e+36,0.00913455,-0.051586,9.99734,-0.165622,-0.122974,-6.25684,-4.1062,0.395508
1217,-7.6595e+36,-0.0225458,-0.0669148,9.97479,-0.187035,-0.268745,-5.11621,-4.09595,0.397217
1218,-7.66478e+36,-0.00376955,-0.0557993,9.98329,-0.118645,-0.231501,-6.42529,-4.09766,0.394043
1219,-7.67007e+36,-0.0351205,-0.0478382,9.97978,-0.172537,-0.257193,-1.65576,-4.12573,0.397705
1220,-7.67535e+36,0.00378408,-0.0538891,9.97565,-0.172666,-0.332498,0.969727,-4.09668,0.391602
1221,-7.68063e+36,-0.0118024,-0.0556923,9.94897,-0.214852,-0.249098,-0.212891,-4.11475,0.395752
1222,-7.68591e+36,0.00432757,-0.0489109,9.97399,-0.10361,-0.294205,5.7124,-4.14404,0.39624
1223,-7.69119e+36,0.00929154,-0.0522515,10.0213,-0.249227,-0.117364,-5.18555,-4.1228,0.394043
1224,-7.69647e+36,0.00398413,-0.0463862,9.99249,-0.0409059,-0.203044,-4.50732,-4.15137,0.398193
1225,-7.70176e+36,-0.0207647,-0.0437897,9.9389,-0.174894,-0.394818,5.79492,-4.0957,0.395508
1226,-7.70704e+36,-0.00682381,-0.0628592,9.96879,-0.293462,-0.306756,-2.51196,-4.12158,0.39624
1227,-7.71232e+36,-0.00340497,-0.0566724,9.9945,-0.151995,-0.321997,7.77368,-4.09302,0.396484
1228,-7.7176e+36,-0.00798257,-0.0716786,9.9925,-0.150279,-0.292105,-1.78833,-4.11328,0.397461
1229,-7.72288e+36,0.00120168,-0.0803121,9.97891,-0.191851,-0.299738,6.88184,-4.09277,0.398682
1230,-7.72816e+36,0.0105218,-0.0675444,9.98248,-0.2627,-0.392231,-4.31201,-4.14062,0.390137
1231,-7.73345e+36,0.0105287,-0.0801765,9.96379,-0.197435,-0.237803,3.43506,-4.09644,0.39624
1232,-7.73873e+36,0.00179553,-0.0521654,9.98534,-0.224099,-0.342821,-7.65088,-4.0918,0.394531
1233,-7.74401e+36,0.00826869,-0.0381962,10.0038,-0.278837,-0.202327,-5.46777,-4.10791,0.395508
1234,-7.74929e+36,0.00283968,-0.0458569,9.99471,-0.165878,-0.347098,2.9624,-4.09619,0.394287
1235,-7.75457e+36,-0.00271109,-0.0441907,9.98593,-0.144823,-0.363722,-4.21143,-4.10596,0.393555
1236,-7.75985e+36,0.0272452,-0.0487681,9.98415,-0.157092,-0.30504,6.07446,-4.10864,0.395752
1237,-7.76514e+36,0.0179968,-0.0562139,9.96978,-0.186651,-0.227454,-1.51172,-4.09302,0.395508
1238,-7.77042e+36,-0.00280391,-0.0541756,9.98756,-0.26708,-0.291516,2.38428,-4.09546,0.396729
1239,-7.7757e+36,-0.0128107,-0.0391404,10.0088,-0.186625,-0.172256,-0.178223,-4.10132,0.396484
1240,-7.78098e+36,-0.0334612,-0.0648409,9.978,-0.137984,-0.307627,7.74512,-4.10278,0.396973
1241,-7.78626e+36,-0.00578665,-0.0542042,10.0135,-0.224842,-0.317437,3.38989,-4.10205,0.397217
1242,-7.79154e+36,-0.00810417,-0.0612355,9.99143,-0.156324,-0.333753,-0.500244,-4.09595,0.394043
1243,-7.79683e+36,-0.00846897,-0.0545547,9.94764,-0.223484,-0.241645,7.94873,-4.0979,0.396729
1244,-7.80211e+36,0.0125175,-0.0501057,9.99251,-0.236061,-0.247971,4.72021,-4.11597,0.394531
1245,-7.80739e+36,0.00153087,-0.0757341,9.96851,-0.238981,-0.308985,-7.11206,-4.09448,0.393066
1246,-7.81267e+36,0.00153786,-0.0618578,10.0369,-0.131324,-0.345818,-5.40967,-4.11206,0.394287
1247,-7.81795e+36,0.0095705,-0.0507852,9.98174,-0.186881,-0.429038,5.66235,-4.1145,0.393066
1248,-7.82323e+36,0.00972071,-0.0300133,9.95489,-0.186241,-0.306526,4.80005,-4.09692,0.396729
1249,-7.82852e+36,0.00143772,-0.0444764,9.98613,-0.202148,-0.291772,4.40869,-4.11841,0.391113
1250,-7.8338e+36,-0.0148207,-0.0553058,10.0088,-0.0784564,-0.284984,2.75146,-4.12646,0.393311
1251,-7.83908e+36,0.00128036,-0.0812491,9.97589,-0.202993,-0.26836,-6.18481,-4.08984,0.391357
1252,-7.84436e+36,0.00200995,-0.0412361,9.97712,-0.146539,-0.216466,2.47144,-4.08984,0.391602
1253,-7.84964e+36,-0.00784667,-0.0602198,9.97894,-0.175329,-0.257551,2.65649,-4.13379,0.390869
1254,-7.85492e+36,0.00525011,-0.0581457,9.97829,-0.118312,-0.415284,-6.47583,-4.09937,0.384766
1255,-7.86021e+36,0.0126893,-0.0481026,10.0094,-0.202276,-0.397174,-6.84302,-4.09961,0.387939
1256,-7.86549e+36,-0.00376963,-0.0440548,9.97015,-0.059092,-0.290696,-1.6687,-4.09326,0.38208
1257,-7.87077e+36,-0.000700979,-0.0552772,9.97699,-0.134039,-0.330654,-1.0127,-4.10522,0.379639
1258,-7.87605e+36,-0.000429171,-0.0438755,10.0141,-0.168004,-0.226071,-4.27466,-4.12915,0.378662
1259,-7.88133e+36,0.0150712,-0.0527949,10.0166,-0.147051,-0.229657,-4.77124,-4.15015,0.372803
1260,-7.88661e+36,0.0223884,-0.0694112,9.96614,-0.160601,-0.231988,-3.93213,-4.1189,0.371582
1261,-7.8919e+36,-0.0142052,-0.054719,9.97239,-0.237213,-0.204248,1.02563,-4.09888,0.360596
1262,-7.89718e+36,0.00871932,-0.0456351,9.98974,-0.140187,-0.287853,-2.69629,-4.10132,0.358398
1263,-7.90246e+36,-0.00645902,-0.0530526,9.96838,-0.147615,-0.38698,-5.09326,-4.14478,0.352051
1264,-7.90774e+36,0.00469226,-0.0698189,9.98194,-0.199202,-0.196307,0.426758,-4.09106,0.344238
1265,-7.91302e+36,-0.00744611,-0.0589895,9.96465,-0.205068,-0.226916,4.12646,-4.10352,0.341309
1266,-7.9183e+36,0.00505706,-0.0476952,9.96063,-0.124511,-0.243361,7.69263,-4.10254,0.329102
1267,-7.92359e+36,0.0124104,-0.0664137,9.97433,-0.127533,-0.217593,1.56348,-4.10913,0.328369
1268,-7.92887e+36,0.0174383,-0.0509216,10.0039,-0.134833,-0.202737,7.85327,-4.10522,0.319824
1269,-7.93415e+36,0.0128179,-0.0605846,10.0076,-0.180529,-0.353246,1.88086,-4.1106,0.312744
1270,-7.93943e+36,0.0105721,-0.0550264,9.99505,-0.207117,-0.35842,3.97339,-4.10669,0.30542
1271,-7.94471e+36,-0.00678068,-0.0784878,9.95499,-0.173716,-0.262162,-2.64648,-4.09961,0.297119
1272,-7.94999e+36,0.00120168,-0.0528166,10.0104,-0.0871652,-0.302709,1.78516,-4.11792,0.29541
1273,-7.95528e+36,-0.00266086,-0.0498482,9.96856,-0.22707,-0.204453,5.43823,-4.13501,0.286865
1274,-7.96056e+36,-0.0156717,-0.0694037,9.97972,-0.197332,-0.272894,7.22485,-4.1062,0.284668
1275,-7.96584e+36,0.0126462,-0.0545547,9.99694,-0.217157,-0.18765,-2.15161,-4.08521,0.282715
