timestamp_ms,acc_x,acc_y,acc_z,gyr_x,gyr_y,gyr_z,mag_x,mag_y,mag_z
0,-6.26267e-34,0,0,0,0,0,0,0,-0.048584
1,-6.26649e-34,0.195103,0.132103,10.2489,1.70164,2.29664,-4.8645,3.98584,-0.050293
2,-6.27032e-34,0.176987,0.105305,10.2618,1.57529,2.18199,-2.97974,3.98853,-0.0471191
3,-6.27414e-34,0.15927,0.120543,10.2398,1.75887,2.10648,1.79541,3.98804,-0.0527344
4,-6.27797e-34,0.192842,0.103062,10.2289,1.87848,1.96701,4.21021,3.98657,-0.0515137
5,-6.2818e-34,0.199038,0.124185,10.2857,1.91944,1.99326,-1.08984,3.98779,-0.052002
6,-6.28562e-34,0.192409,0.119524,10.251,1.81465,2.10317,-3.18774,3.9873,-0.0527344
7,-6.28945e-34,0.202083,0.13314,10.2565,1.75897,2.12126,-7.48901,3.98706,-0.052002
8,-6.29328e-34,0.18796,0.12465,10.2382,1.6655,2.14597,-2.92578,3.98755,-0.0495605
9,-6.2971e-34,0.186633,0.132561,10.2529,1.64734,2.14613,6.46045,3.99072,-0.0461426
10,-6.30093e-34,0.187192,0.120279,10.2273,1.74091,2.16721,-2.92749,3.98853,-0.0480957
11,-6.30475e-34,0.189407,0.128613,10.2731,1.94416,2.06186,1.27246,3.98657,-0.048584
12,-6.30858e-34,0.193523,0.114963,10.2879,1.87049,2.12925,-3.71191,3.98706,-0.0480957
13,-6.31241e-34,0.196144,0.132396,10.2476,1.90456,1.852,7.35962,3.98511,-0.0541992
14,-6.31623e-34,0.206066,0.120407,10.2551,1.84739,1.98822,-5.44067,3.98535,-0.0437012
15,-6.32006e-34,0.204958,0.141185,10.2495,1.6246,2.16096,3.89355,3.98804,-0.0546875
16,-6.32389e-34,0.196069,0.125275,10.2661,1.55756,2.24636,-0.302734,3.98779,-0.0476074
17,-6.32771e-34,0.174434,0.114669,10.2478,1.4922,2.30875,3.36987,3.9873,-0.0505371
18,-6.33154e-34,0.189459,0.111292,10.2296,1.60854,2.23293,7.30591,3.98608,-0.0471191
19,-6.33537e-34,0.1624,0.114003,10.2533,1.84562,2.11296,-7.85815,3.98877,-0.0461426
20,-6.33919e-34,0.173808,0.102227,10.2645,1.95215,1.95827,-3.02808,3.9856,-0.0507812
21,-6.34302e-34,0.183924,0.119605,10.2535,2.03258,1.99739,6.57227,3.9856,-0.045166
22,-6.34684e-34,0.195576,0.130153,10.2811,2.13847,1.77915,1.06299,3.98633,-0.0480957
23,-6.35067e-34,0.187616,0.127423,10.2426,1.95674,1.93893,5.67651,3.98853,-0.0466309
24,-6.3545e-34,0.208173,0.110123,10.265,1.75625,1.8561,-4.08252,3.98975,-0.0471191
25,-6.35832e-34,0.2055,0.102992,10.2321,1.55249,2.24697,3.7854,3.99072,-0.0507812
26,-6.36215e-34,0.183787,0.125686,10.2538,1.55106,2.26162,6.46216,3.9895,-0.0480957
27,-6.36598e-34,0.181846,0.120918,10.2942,1.59593,2.35796,-2.71606,3.98755,-0.0490723
28,-6.3698e-34,0.180585,0.1158,10.2559,1.77249,2.18842,-5.39014,3.98682,-0.0461426
29,-6.37363e-34,0.17358,0.127958,10.2851,1.92111,2.03214,-6.07227,3.98682,-0.0515137
30,-6.37745e-34,0.185396,0.121553,10.2706,2.02697,1.82508,-4.76025,3.98633,-0.052002
31,-6.38128e-34,0.187923,0.0949621,10.2582,1.8623,2.00097,0.697266,3.98511,-0.0505371
32,-6.38511e-34,0.19786,0.121514,10.2728,1.87495,1.98322,4.68115,3.9873,-0.0507812
33,-6.38893e-34,0.18411,0.125841,10.2488,1.74287,2.14276,7.698,3.98706,-0.0471191
34,-6.39276e-34,0.185661,0.10671,10.2986,1.69462,2.36095,7.67212,3.98682,-0.0505371
35,-6.39659e-34,0.180563,0.118292,10.2857,1.68561,2.23339,7.56494,3.98853,-0.0461426
36,-6.40041e-34,0.192039,0.120542,10.2731,1.64586,2.15161,5.36133,3.98877,-0.0480957
37,-6.40424e-34,0.190913,0.12291,10.253,1.6916,1.9771,0.119873,3.98535,-0.0541992
38,-6.40807e-34,0.188188,0.13083,10.2493,1.85266,2.07479,-4.02466,3.9856,-0.0439453
39,-6.41189e-34,0.190694,0.150292,10.2675,2.05848,1.93289,7.6731,3.98608,-0.0522461
40,-6.41572e-34,0.184095,0.131123,10.2549,1.92536,2.00625,-3.24292,3.9895,-0.0490723
41,-6.41954e-34,0.189796,0.119447,10.2717,1.84752,2.00758,-0.929443,3.98535,-0.0505371
42,-6.42337e-34,0.201496,0.116238,10.2573,1.64593,2.0596,-1.14062,3.98633,-0.0478516
43,-6.4272e-34,0.18144,0.118995,10.2919,1.4925,2.2953,-1.56348,3.98877,-0.0510254
44,-6.43102e-34,0.193166,0.113418,10.2593,1.6611,2.22387,-2.45508,3.98853,-0.0498047
45,-6.43485e-34,0.177127,0.103157,10.2538,1.86411,2.23611,1.00586,3.98999,-0.0456543
46,-6.43868e-34,0.186915,0.127791,10.2482,1.87091,2.09427,5.54932,3.9856,-0.048584
47,-6.4425e-34,0.194602,0.123358,10.2632,1.88537,1.88827,5.25586,3.98877,-0.0500488
48,-6.44633e-34,0.188409,0.135272,10.252,1.96497,1.86559,0.199707,3.98462,-0.0500488
49,-6.45016e-34,0.186966,0.118015,10.2652,1.83256,2.01767,-3.71143,3.98657,-0.0507812
50,-6.45398e-34,0.191027,0.113289,10.2727,1.70656,2.11219,7.04077,3.98804,-0.048584
51,-6.45781e-34,0.186596,0.128234,10.2487,1.63438,2.14559,-4.9729,3.98877,-0.0556641
52,-6.46163e-34,0.188434,0.119746,10.2637,1.52013,2.15751,-1.64038,3.9873,-0.0500488
53,-6.46546e-34,0.170519,0.0963268,10.2528,1.62912,2.2946,5.75635,3.98779,-0.0515137
54,-6.46929e-34,0.202234,0.116627,10.2477,1.66809,2.15448,-4.54932,3.9856,-0.0522461
55,-6.47311e-34,0.171334,0.112526,10.2638,1.83549,1.94038,2.5061,3.98608,-0.0456543
56,-6.47694e-34,0.185204,0.129733,10.2694,2.04498,1.97554,-3.92285,3.98804,-0.0529785
57,-6.48077e-34,0.224308,0.130931,10.283,2.20558,1.5141,-0.244385,3.98291,-0.0471191
58,-6.48459e-34,0.219672,0.139757,10.3012,1.81132,1.72892,2.74292,3.98535,-0.0456543
59,-6.48842e-34,0.195417,0.125074,10.2663,1.58273,2.50384,-6.62646,3.9895,-0.0466309
60,-6.49224e-34,0.180511,0.120074,10.2608,1.31311,2.4605,5.70654,3.9856,-0.0466309
61,-6.49607e-34,0.156472,0.11359,10.2734,1.51883,2.18068,-6.91187,3.98706,-0.0527344
62,-6.4999e-34,0.160896,0.128554,10.2734,1.75382,2.27909,-2.29639,3.98755,-0.0471191
63,-6.50372e-34,0.160978,0.090567,10.254,1.70919,2.05677,7.17114,3.98877,-0.0517578
64,-6.50755e-34,0.185549,0.116962,10.267,1.80989,1.77462,-0.980957,3.98486,-0.0471191
65,-6.51138e-34,0.203665,0.124486,10.2545,2.25385,1.99617,-7.67139,3.98633,-0.052002
66,-6.5152e-34,0.205676,0.135561,10.2856,2.2903,2.05995,6.12476,3.98682,-0.0515137
67,-6.51903e-34,0.191656,0.139176,10.2817,2.01054,1.75586,-7.9353,3.98755,-0.0490723
68,-6.52286e-34,0.201901,0.122863,10.2549,1.70283,2.01902,-0.118896,3.9873,-0.0510254
69,-6.52668e-34,0.198148,0.123778,10.2824,1.43356,2.23808,4.52173,3.98901,-0.0476074
70,-6.53051e-34,0.198453,0.10903,10.2682,1.39968,2.35703,7.25439,3.9856,-0.0510254
71,-6.53433e-34,0.174918,0.0929439,10.2554,1.54716,2.26813,-1.66748,3.98828,-0.0466309
72,-6.53816e-34,0.184797,0.12273,10.2643,1.77404,2.20923,-4.00415,3.98975,-0.0495605
73,-6.54199e-34,0.157686,0.118602,10.2639,1.97435,2.08175,7.54175,3.98608,-0.0517578
74,-6.54581e-34,0.174927,0.12862,10.2661,2.03139,1.90783,2.81909,3.9873,-0.0480957
75,-6.54964e-34,0.195572,0.0978712,10.249,1.81985,1.85525,-4.34009,3.98608,-0.0517578
76,-6.55347e-34,0.197318,0.123892,10.234,1.85095,1.93432,-2.19189,3.98804,-0.052002
77,-6.55729e-34,0.197576,0.115607,10.2435,1.7556,2.16399,2.87305,3.98584,-0.0534668
78,-6.56112e-34,0.188754,0.135223,10.2632,1.75719,2.06627,-4.68384,3.98779,-0.0524902
79,-6.56494e-34,0.172403,0.121611,10.2687,1.71377,2.1486,-4.94507,3.98755,-0.0480957
80,-6.56877e-34,0.171455,0.134906,10.2612,1.74035,2.18936,1.58545,3.98779,-0.052002
81,-6.5726e-34,0.178749,0.124992,10.2746,1.8605,1.8501,-4.4458,3.98657,-0.0456543
82,-6.57642e-34,0.200394,0.126849,10.2551,1.89509,1.77005,0.456787,3.98853,-0.0495605
83,-6.58025e-34,0.196626,0.162564,10.2544,1.94653,1.85337,4.86279,3.98901,-0.0466309
84,-6.58408e-34,0.198222,0.128905,10.2663,1.82891,1.9421,-2.21558,3.98608,-0.0461426
85,-6.5879e-34,0.187104,0.120964,10.2883,1.60316,2.25678,-7.75342,3.98853,-0.0507812
86,-6.59173e-34,0.19067,0.0917564,10.2765,1.45306,2.1483,-4.18506,3.98804,-0.0466309
87,-6.59556e-34,0.172056,0.117227,10.2499,1.24365,2.30085,-4.00024,3.98682,-0.0527344
88,-6.59938e-34,0.186112,0.104767,10.2764,1.56283,2.36442,0.302979,3.98608,-0.0500488
89,-6.60321e-34,0.15783,0.107175,10.2501,1.76513,2.14947,-5.83643,3.98682,-0.0500488
90,-6.60703e-34,0.183764,0.119052,10.2727,2.0048,1.82986,-5.94458,3.9895,-0.0505371
91,-6.61086e-34,0.208999,0.12691,10.266,2.25185,1.65058,-1.37671,3.98633,-0.045166
92,-6.61469e-34,0.191714,0.12864,10.2675,2.07683,1.75975,3.08008,3.98828,-0.0549316
93,-6.61851e-34,0.20418,0.140136,10.2567,2.08067,2.01469,6.44043,3.98608,-0.0476074
94,-6.62234e-34,0.207292,0.111972,10.2687,1.66864,2.11907,-3.26953,3.9895,-0.0490723
95,-6.62617e-34,0.174611,0.101788,10.2609,1.35422,2.39429,-6.99194,3.98828,-0.048584
96,-6.62999e-34,0.153508,0.118299,10.2435,1.18174,2.38497,5.65015,3.98877,-0.0471191
97,-6.63382e-34,0.179735,0.126888,10.2406,1.59205,2.23889,-0.43457,3.98779,-0.0507812
98,-6.63765e-34,0.166526,0.111468,10.2518,1.69702,2.27436,6.65137,3.98535,-0.0461426
99,-6.64147e-34,0.16938,0.111459,10.2924,1.97688,1.97119,-4.36621,3.98584,-0.0546875
100,-6.6453e-34,0.202761,0.138562,10.2672,2.15608,1.88728,4.49878,3.98633,-0.0471191
101,-6.64912e-34,0.221369,0.124829,10.272,1.98984,1.80509,-3.32104,3.98877,-0.0510254
102,-6.65295e-34,0.186111,0.116658,10.2438,1.70609,1.98641,-7.04297,3.98682,-0.0541992
103,-6.65678e-34,0.185785,0.102782,10.2609,1.53767,2.30677,-0.433594,3.98706,-0.046875
104,-6.6606e-34,0.181083,0.108173,10.2443,1.42149,2.4143,-7.09424,3.98608,-0.0507812
105,-6.66443e-34,0.191192,0.129598,10.2901,1.54677,2.32411,-7.88062,3.98584,-0.0456543
106,-6.66826e-34,0.171085,0.108219,10.2774,1.56485,2.19429,2.45361,3.98584,-0.0515137
107,-6.67208e-34,0.180885,0.123454,10.2867,1.87599,2.04794,1.92847,3.98633,-0.0471191
108,-6.67591e-34,0.182768,0.140121,10.2608,1.93003,1.96274,6.70483,3.98438,-0.0476074
109,-6.67973e-34,0.166742,0.132358,10.2625,1.93024,1.93749,-2.16333,3.98633,-0.050293
110,-6.68356e-34,0.213445,0.111244,10.2429,1.96259,2.06371,4.28784,3.9873,-0.0480957
111,-6.68739e-34,0.190409,0.121622,10.2933,1.75258,1.93869,1.50757,3.98755,-0.0541992
112,-6.69121e-34,0.186821,0.118784,10.3045,1.49326,2.17841,2.71338,3.98779,-0.0515137
113,-6.69504e-34,0.199472,0.097234,10.2563,1.66685,2.11133,6.3833,3.9895,-0.0529785
114,-6.69887e-34,0.202299,0.142162,10.2754,1.77427,2.3154,-6.41333,3.98706,-0.0480957
115,-6.70269e-34,0.168683,0.111133,10.2791,1.98577,1.99822,7.48657,3.98828,-0.0471191
116,-6.70652e-34,0.197164,0.147157,10.2462,1.99399,1.80706,-7.77637,3.98657,-0.0507812
117,-6.71035e-34,0.186413,0.130024,10.3034,2.02924,1.82722,5.17798,3.98853,-0.0490723
118,-6.71417e-34,0.180679,0.128588,10.2796,1.89002,1.96705,3.13184,3.98877,-0.0500488
119,-6.718e-34,0.191776,0.12556,10.2895,1.67942,2.18692,-1.95801,3.9895,-0.0500488
120,-6.72182e-34,0.181575,0.144966,10.2392,1.49531,2.15203,2.87231,3.98682,-0.0495605
121,-6.72565e-34,0.152556,0.1366,10.2349,1.40415,2.40894,6.28247,3.98633,-0.0537109
122,-6.72948e-34,0.164764,0.110778,10.2346,1.41273,2.18364,4.33887,3.98853,-0.045166
123,-6.7333e-34,0.168209,0.117077,10.2568,1.51885,2.17086,3.76123,3.98901,-0.0546875
124,-6.73713e-34,0.190432,0.128935,10.2299,2.01798,2.04649,3.36938,3.98779,-0.0480957
125,-6.74096e-34,0.204941,0.12693,10.2546,2.3291,1.61277,-6.15332,3.98877,-0.0505371
126,-6.74478e-34,0.199998,0.116082,10.2623,2.35075,1.60414,-2.63428,3.98535,-0.0527344
127,-6.74861e-34,0.189516,0.110255,10.3137,1.99089,1.9233,-7.93384,3.98633,-0.0505371
128,-6.75243e-34,0.197732,0.114421,10.2609,1.59549,2.21578,2.65991,3.98853,-0.0539551
129,-6.75626e-34,0.186962,0.129935,10.2712,1.31411,2.37267,-6.67773,3.98853,-0.048584
130,-6.76009e-34,0.172516,0.111068,10.2991,1.32239,2.53417,-3.26587,3.98706,-0.048584
131,-6.76391e-34,0.16686,0.123081,10.2638,1.45002,2.28766,-6.88525,3.98682,-0.0471191
132,-6.76774e-34,0.176721,0.109305,10.2888,1.60296,2.1132,5.65186,3.98706,-0.0480957
133,-6.77157e-34,0.161814,0.101936,10.307,1.98254,1.8681,-4.26343,3.98755,-0.050293
134,-6.77539e-34,0.199009,0.111858,10.2772,2.01699,1.7429,-7.82642,3.98462,-0.0500488
135,-6.77922e-34,0.191788,0.112435,10.2588,2.21768,1.79709,4.18262,3.98755,-0.0541992
136,-6.78305e-34,0.206064,0.148442,10.2693,2.04151,1.90583,2.13843,3.98633,-0.0500488
137,-6.78687e-34,0.206078,0.148114,10.2843,1.94576,2.04484,-5.3103,3.9856,-0.0510254
138,-6.7907e-34,0.203423,0.138783,10.2609,1.47097,2.28507,5.1792,3.98779,-0.0476074
139,-6.79452e-34,0.175063,0.123698,10.2716,1.32979,2.44127,-3.73486,3.98438,-0.0471191
140,-6.79835e-34,0.178721,0.0932003,10.2915,1.39308,2.32249,1.77295,3.98511,-0.0527344
141,-6.80218e-34,0.17127,0.109845,10.2302,1.61933,2.17854,1.87598,3.98657,-0.0466309
142,-6.806e-34,0.191697,0.109617,10.2772,1.79238,1.98449,0.877441,3.98779,-0.0500488
143,-6.80983e-34,0.192374,0.106695,10.2776,1.99146,1.95703,6.59448,3.98853,-0.0456543
144,-6.81366e-34,0.192866,0.130701,10.2568,1.8705,1.97045,6.48975,3.98828,-0.0456543
145,-6.81748e-34,0.196374,0.131858,10.2737,1.74432,2.17277,-2.87427,3.98828,-0.0507812
146,-6.82131e-34,0.188244,0.118669,10.2888,1.7046,2.13052,-4.6311,3.98779,-0.0490723
147,-6.82514e-34,0.180597,0.114775,10.2614,1.66613,2.16374,0.772705,3.98755,-0.0527344
148,-6.82896e-34,0.172846,0.106801,10.2726,1.70273,2.22455,-1.32349,3.98584,-0.048584
149,-6.83279e-34,0.195583,0.114024,10.2296,1.63542,2.15705,1.08569,3.98901,-0.0505371
150,-6.83661e-34,0.201711,0.13106,10.279,1.83841,1.90014,6.9104,3.98779,-0.0527344
151,-6.84044e-34,0.196621,0.132565,10.2918,2.1955,1.93441,-5.88916,3.98706,-0.0480957
152,-6.84427e-34,0.210414,0.144429,10.2941,2.04568,1.88577,1.24316,3.98901,-0.0532227
153,-6.84809e-34,0.189385,0.119136,10.3036,1.70873,1.87138,6.44141,3.98511,-0.0466309
154,-6.85192e-34,0.208654,0.13006,10.2676,1.41347,2.14222,5.02222,3.9873,-0.0539551
155,-6.85575e-34,0.206645,0.143797,10.2892,1.34603,2.35269,-6.77954,3.98608,-0.0461426
156,-6.85957e-34,0.172195,0.103532,10.2565,1.56283,2.40177,0.825928,3.98706,-0.052002
157,-6.8634e-34,0.174964,0.0990878,10.2736,1.68642,2.19988,4.44458,3.98779,-0.0517578
158,-6.86722e-34,0.188537,0.0933651,10.2638,1.77704,1.88165,6.80225,3.99023,-0.0446777
159,-6.87105e-34,0.192905,0.115261,10.2468,1.98887,1.90606,4.07666,3.98853,-0.0522461
160,-6.87488e-34,0.191024,0.130616,10.2372,2.07393,1.94184,0.565674,3.9856,-0.0495605
161,-6.8787e-34,0.193413,0.150425,10.2918,2.13587,1.91267,4.29053,3.98535,-0.0510254
162,-6.88253e-34,0.184242,0.127858,10.2871,1.91515,1.94776,4.60254,3.9873,-0.0505371
163,-6.88636e-34,0.210437,0.140971,10.2606,1.5806,2.18484,5.54492,3.98877,-0.0495605
164,-6.89018e-34,0.18407,0.13214,10.238,1.50496,2.28517,-3.63599,3.98926,-0.0505371
165,-6.89401e-34,0.171884,0.120396,10.2914,1.54771,2.4435,0.40625,3.98706,-0.0446777
166,-6.89784e-34,0.175105,0.104263,10.2504,1.46588,2.2176,7.28052,3.98535,-0.0476074
167,-6.90166e-34,0.175693,0.10444,10.247,1.58767,2.0173,-4.4187,3.98608,-0.0456543
168,-6.90549e-34,0.195905,0.106651,10.2629,1.8757,1.96372,-1.79517,3.9856,-0.048584
169,-6.90931e-34,0.189201,0.106077,10.2665,2.14453,1.95998,-0.329346,3.98779,-0.0527344
170,-6.91314e-34,0.208274,0.123592,10.2781,2.16768,1.87258,7.01782,3.9856,-0.0456543
171,-6.91697e-34,0.192007,0.151135,10.2377,1.9788,1.97345,7.80127,3.98828,-0.0541992
172,-6.92079e-34,0.197548,0.132667,10.2649,1.6336,2.15575,-3.63135,3.9856,-0.0490723
173,-6.92462e-34,0.185952,0.111137,10.3004,1.51416,2.28156,-3.79224,3.98828,-0.0495605
174,-6.92845e-34,0.171017,0.130406,10.2587,1.8579,2.43617,3.9209,3.9873,-0.050293
175,-6.93227e-34,0.179403,0.142497,10.3122,1.6649,2.09635,5.1814,3.98608,-0.0441895
176,-6.9361e-34,0.183998,0.114421,10.2662,1.44503,1.76605,4.34204,3.98584,-0.0505371
177,-6.93992e-34,0.219635,0.0846337,10.2478,1.40294,1.95403,-6.04492,3.98584,-0.0461426
178,-6.94375e-34,0.200728,0.0907713,10.2284,1.8661,2.34071,-7.77783,3.98706,-0.0461426
179,-6.94758e-34,0.158274,0.13213,10.2704,2.48179,2.27016,-7.61987,3.98682,-0.0446777
180,-6.9514e-34,0.165016,0.132823,10.2509,2.27449,1.89653,-1.21875,3.98584,-0.048584
181,-6.95523e-34,0.172662,0.109149,10.2509,1.55455,1.75903,-5.52246,3.98779,-0.0507812
182,-6.95906e-34,0.214822,0.108175,10.2664,1.14524,1.83739,6.69922,3.98877,-0.045166
183,-6.96288e-34,0.213634,0.0983259,10.247,1.36024,2.28044,-6.72949,3.98828,-0.0537109
184,-6.96671e-34,0.163193,0.101917,10.2737,1.92222,2.55059,2.4502,3.98853,-0.0466309
185,-6.97054e-34,0.149961,0.136187,10.3029,2.12555,2.1558,-2.89746,3.98633,-0.0490723
186,-6.97436e-34,0.161849,0.129603,10.2601,2.20344,1.66347,-4.10425,3.98633,-0.0476074
187,-6.97819e-34,0.210712,0.143316,10.2789,1.69866,1.71941,-7.25269,3.98706,-0.048584
188,-6.98201e-34,0.224098,0.109068,10.2451,1.59379,2.11256,1.29736,3.98755,-0.0507812
189,-6.98584e-34,0.21564,0.118583,10.2793,1.56493,2.40418,3.8645,3.99023,-0.0466309
190,-6.98967e-34,0.178445,0.121506,10.2591,1.70701,2.46755,-3.84302,3.98706,-0.0510254
191,-6.99349e-34,0.155816,0.123657,10.269,1.61644,2.12053,6.27808,3.98975,-0.0437012
192,-6.99732e-34,0.172256,0.122264,10.2447,1.61992,1.98838,-6.09546,3.98462,-0.0471191
193,-7.00115e-34,0.190743,0.110962,10.2467,1.67886,1.85591,7.3833,3.98682,-0.0537109
194,-7.00497e-34,0.175997,0.120591,10.2695,1.85821,1.98905,5.70605,3.98608,-0.0480957
195,-7.0088e-34,0.189744,0.101819,10.222,1.88188,1.9724,-0.749512,3.98828,-0.0507812
196,-7.01263e-34,0.185994,0.112833,10.2399,1.79871,2.02463,-0.536377,3.9856,-0.0500488
197,-7.01645e-34,0.211488,0.126232,10.2631,1.82414,2.05326,4.34009,3.9873,-0.052002
198,-7.02028e-34,0.19507,0.122242,10.2645,1.67143,2.0893,-7.51196,3.98486,-0.0476074
199,-7.0241e-34,0.192981,0.119561,10.2741,1.65973,2.16538,-1.32251,3.98511,-0.0471191
200,-7.02793e-34,0.173674,0.129727,10.2709,1.45269,2.41104,-2.0564,3.98462,-0.0522461
201,-7.03176e-34,0.155854,0.122724,10.2577,1.47374,2.37877,-5.04761,3.98584,-0.0446777
202,-7.03558e-34,0.176412,0.123679,10.2868,1.78216,1.9641,-2.32471,3.98926,-0.0461426
203,-7.03941e-34,0.187301,0.128962,10.2765,2.03738,1.79097,4.18213,3.98779,-0.0466309
204,-7.04324e-34,0.205521,0.103534,10.2757,2.17995,1.62348,-6.46191,3.98389,-0.0476074
205,-7.04706e-34,0.197425,0.130109,10.2648,2.02872,1.87422,-3.37061,3.98682,-0.050293
206,-7.05089e-34,0.202979,0.127205,10.2712,1.7754,2.22406,3.9729,3.98779,-0.048584
207,-7.05471e-34,0.192905,0.130986,10.2892,1.54569,2.27716,-0.116455,3.9856,-0.0517578
208,-7.05854e-34,0.175529,0.126251,10.2464,1.6556,2.26755,-1.01025,3.98706,-0.0480957
209,-7.06237e-34,0.176157,0.121736,10.293,1.60122,2.20664,1.92505,3.98926,-0.0495605
210,-7.06619e-34,0.187244,0.114427,10.2614,1.54462,2.12047,-1.42676,3.98462,-0.0534668
211,-7.07002e-34,0.209577,0.113442,10.2927,1.59607,1.92775,-2.90137,3.98901,-0.0456543
212,-7.07385e-34,0.189058,0.136249,10.2445,1.99801,2.03082,4.07812,3.98706,-0.0544434
213,-7.07767e-34,0.183138,0.124715,10.2782,2.08495,1.9921,4.0293,3.98462,-0.0456543
214,-7.0815e-34,0.189755,0.136896,10.2526,2.18044,2.03469,7.12329,3.98535,-0.0495605
215,-7.08533e-34,0.1859,0.153779,10.3014,1.90483,1.89289,1.18994,3.98975,-0.045166
216,-7.08915e-34,0.190462,0.130844,10.2776,1.45579,1.96146,6.70093,3.98755,-0.0480957
217,-7.09298e-34,0.188714,0.1239,10.2525,1.21857,2.19588,-7.8833,3.98779,-0.0493164
218,-7.0968e-34,0.182726,0.111813,10.2311,1.52033,2.51191,-7.04175,3.98633,-0.0446777
219,-7.10063e-34,0.152867,0.100674,10.2578,1.94722,2.22421,7.06836,3.98706,-0.0517578
220,-7.10446e-34,0.161974,0.105885,10.242,2.1819,1.95698,7.80298,3.98682,-0.0490723
221,-7.10828e-34,0.183588,0.137947,10.2529,1.97209,1.66426,-6.2019,3.9856,-0.0480957
222,-7.11211e-34,0.173407,0.108082,10.2856,1.75855,1.71708,6.85889,3.98706,-0.0515137
223,-7.11594e-34,0.227947,0.120741,10.2631,1.60432,1.99922,5.3894,3.98779,-0.0471191
224,-7.11976e-34,0.189903,0.101722,10.2768,1.70732,2.37301,-6.15088,3.98657,-0.0507812
225,-7.12359e-34,0.179612,0.129195,10.2877,1.88779,2.32631,-7.35571,3.9856,-0.0471191
226,-7.12741e-34,0.181035,0.120678,10.2869,1.63857,2.09478,3.97363,3.9873,-0.0500488
227,-7.13124e-34,0.159082,0.123096,10.2673,1.58611,1.93946,-2.89771,3.98633,-0.0500488
228,-7.13507e-34,0.185066,0.103149,10.2596,1.67584,2.03047,-2.79224,3.98608,-0.0466309
229,-7.13889e-34,0.207857,0.0946524,10.2529,1.79899,1.95242,2.13525,3.98877,-0.0512695
230,-7.14272e-34,0.186646,0.102053,10.255,1.85813,2.1436,-0.694336,3.98584,-0.0480957
231,-7.14655e-34,0.186377,0.113146,10.2731,1.99955,1.99929,-2.68848,3.98657,-0.0507812
232,-7.15037e-34,0.180318,0.133064,10.2774,1.9724,1.96389,-5.83594,3.98657,-0.052002
233,-7.1542e-34,0.197221,0.127239,10.2757,1.79579,2.07083,-1.95654,3.98853,-0.0515137
234,-7.15803e-34,0.190387,0.128014,10.2737,1.58911,2.1339,-7.46484,3.98853,-0.0476074
235,-7.16185e-34,0.17769,0.119577,10.2701,1.51188,2.21566,2.03174,3.98779,-0.0480957
236,-7.16568e-34,0.189772,0.0929339,10.2914,1.68047,2.11028,-7.35791,3.98706,-0.0529785
237,-7.1695e-34,0.186535,0.128681,10.293,1.80101,2.01161,0.249023,3.98706,-0.0456543
238,-7.17333e-34,0.207874,0.145939,10.2515,2.09842,1.91843,-3.68579,3.9873,-0.0466309
239,-7.17716e-34,0.20088,0.13164,10.2946,2.14891,1.9445,0.248779,3.98706,-0.0500488
240,-7.18098e-34,0.20041,0.134342,10.2599,1.82932,1.92614,2.5564,3.98755,-0.0461426
241,-7.18481e-34,0.204054,0.127641,10.2371,1.53324,2.20774,-5.41382,3.98486,-0.0522461
242,-7.18864e-34,0.170483,0.116513,10.2634,1.35566,2.35451,0.71875,3.98877,-0.0466309
243,-7.19246e-34,0.184846,0.123819,10.2754,1.47886,2.1884,5.54272,3.99023,-0.0510254
244,-7.19629e-34,0.173718,0.113552,10.2739,1.64507,2.28351,-2.68799,3.98657,-0.0500488
245,-7.20012e-34,0.172404,0.11166,10.2927,1.76006,2.0755,-2.21655,3.98706,-0.0495605
246,-7.20394e-34,0.162253,0.121567,10.2237,1.85877,1.94071,5.07593,3.98657,-0.0478516
247,-7.20777e-34,0.187736,0.116904,10.2796,1.87243,1.94348,3.66162,3.98486,-0.0490723
248,-7.21159e-34,0.1921,0.135196,10.2699,2.01861,1.91874,5.70654,3.9856,-0.0517578
249,-7.21542e-34,0.199174,0.126881,10.277,2.00977,1.96118,-3.32202,3.98975,-0.048584
250,-7.21925e-34,0.183603,0.126829,10.2468,1.85337,2.03462,5.23291,3.98657,-0.0490723
251,-7.22307e-34,0.191681,0.104457,10.2733,1.55445,2.38684,-4.84106,3.98828,-0.0437012
252,-7.2269e-34,0.183891,0.105938,10.2565,1.49236,2.32395,7.0127,3.98926,-0.0466309
253,-7.23073e-34,0.170452,0.117299,10.2735,1.66872,2.28136,-1.90112,3.98633,-0.050293
254,-7.23455e-34,0.171277,0.115367,10.265,1.78467,2.15636,0.45752,3.98804,-0.0429688
255,-7.23838e-34,0.174988,0.137504,10.2863,1.88951,1.86884,2.18652,3.98926,-0.0517578
256,-7.2422e-34,0.185595,0.133274,10.2749,1.94655,1.87839,-7.82812,3.98584,-0.0480957
257,-7.24603e-34,0.190572,0.12933,10.2649,1.9057,2.04998,5.5979,3.98853,-0.0490723
258,-7.24986e-34,0.188047,0.116098,10.2459,1.79169,2.13776,-0.903809,3.98584,-0.0488281
259,-7.25368e-34,0.194428,0.1288,10.2699,1.60015,2.12808,1.98242,3.98535,-0.0480957
260,-7.25751e-34,0.18288,0.119628,10.2535,1.68934,2.06151,4.33887,3.98853,-0.0507812
261,-7.26134e-34,0.178435,0.101944,10.2548,1.64282,2.26758,4.29126,3.98486,-0.0456543
262,-7.26516e-34,0.20469,0.145714,10.2395,1.80201,2.10631,3.92017,3.98755,-0.0480957
263,-7.26899e-34,0.200248,0.124907,10.2172,1.83954,2.08326,1.92578,3.98853,-0.0476074
264,-7.27282e-34,0.178189,0.116827,10.2828,1.92404,1.91833,7.59888,3.98267,-0.0476074
265,-7.27664e-34,0.186958,0.116756,10.2526,1.86392,1.97606,-1.16968,3.98853,-0.0493164
266,-7.28047e-34,0.203383,0.130349,10.2699,1.78142,2.09138,-5.83594,3.98657,-0.0466309
267,-7.28429e-34,0.183933,0.131885,10.2651,1.6616,2.07211,5.18433,3.98364,-0.0510254
268,-7.28812e-34,0.178808,0.129174,10.2432,1.64041,2.1684,-3.89722,3.98828,-0.048584
269,-7.29195e-34,0.194347,0.116018,10.2495,1.63421,2.23292,-6.20386,3.98706,-0.0500488
270,-7.29577e-34,0.154087,0.124601,10.2774,1.7005,2.28315,-6.62109,3.98535,-0.0500488
271,-7.2996e-34,0.192123,0.123217,10.2866,1.75163,2.11443,0.404053,3.98877,-0.0490723
272,-7.30343e-34,0.17381,0.135149,10.2995,1.87412,2.0163,-3.89697,3.98804,-0.048584
273,-7.30725e-34,0.183481,0.110718,10.262,1.94599,1.86359,3.34351,3.9873,-0.0500488
274,-7.31108e-34,0.185661,0.120768,10.3171,1.95652,1.75893,0.929199,3.98804,-0.0505371
275,-7.3149e-34,0.180734,0.12502,10.2579,1.80744,2.09463,-5.20703,3.98706,-0.045166
276,-7.31873e-34,0.212324,0.123373,10.2574,1.70985,2.18879,-0.169678,3.98608,-0.0471191
277,-7.32256e-34,0.173581,0.134793,10.2465,1.46309,2.19281,-4.83569,3.98413,-0.0522461
278,-7.32638e-34,0.170869,0.123943,10.2733,1.41273,2.27349,-0.0639648,3.9856,-0.045166
279,-7.33021e-34,0.190938,0.131267,10.2639,1.67023,2.20728,-5.57397,3.98682,-0.0527344
280,-7.33404e-34,0.195656,0.131261,10.2353,1.81723,2.16932,-7.46191,3.98657,-0.048584
281,-7.33786e-34,0.1774,0.119317,10.272,1.99699,1.89056,-7.09619,3.98779,-0.0505371
282,-7.34169e-34,0.189249,0.131186,10.2578,1.91274,2.03323,5.12622,3.98804,-0.0483398
283,-7.34552e-34,0.212607,0.125836,10.2459,1.89889,1.95442,-6.25879,3.98901,-0.0490723
284,-7.34934e-34,0.186356,0.139022,10.2671,1.89507,2.08264,3.18408,3.98901,-0.0498047
285,-7.35317e-34,0.208109,0.109116,10.2736,1.65291,2.15631,-3.74023,3.98877,-0.048584
286,-7.35699e-34,0.186367,0.116913,10.279,1.66828,2.13817,3.28882,3.98926,-0.052002
287,-7.36082e-34,0.180976,0.11467,10.2387,1.53749,2.20984,7.06421,3.99048,-0.0441895
288,-7.36465e-34,0.201897,0.134335,10.2487,1.597,2.27734,7.43262,3.9895,-0.045166
289,-7.36847e-34,0.184044,0.137118,10.288,1.83114,1.99322,1.71655,3.98804,-0.0522461
290,-7.3723e-34,0.182419,0.122743,10.2821,1.96774,2.07537,5.39087,3.98633,-0.0456543
291,-7.37613e-34,0.212998,0.125184,10.2574,2.09442,2.01113,0.878418,3.98706,-0.0522461
292,-7.37995e-34,0.177679,0.131925,10.2506,1.95754,1.94148,3.86719,3.98804,-0.0490723
293,-7.38378e-34,0.195679,0.129673,10.2787,1.70711,2.05495,4.96899,3.98779,-0.0510254
294,-7.38761e-34,0.194949,0.110049,10.2567,1.5731,2.16481,0.196777,3.98657,-0.0510254
295,-7.39143e-34,0.198873,0.127955,10.2506,1.55253,2.11702,7.12109,3.98706,-0.0441895
296,-7.39526e-34,0.17046,0.119693,10.2584,1.64315,2.23553,-7.36157,3.98975,-0.050293
297,-7.39908e-34,0.176115,0.106359,10.2513,1.78751,2.02616,-1.90674,3.99048,-0.0456543
298,-7.40291e-34,0.194028,0.110067,10.2844,1.92468,1.95536,0.881104,3.98511,-0.0500488
299,-7.40674e-34,0.196807,0.130271,10.2762,2.00813,2.01561,5.60156,3.9856,-0.0461426
300,-7.41056e-34,0.202264,0.117539,10.2727,1.84702,2.00413,-4.36816,3.98755,-0.0456543
301,-7.41439e-34,0.192726,0.127827,10.2697,1.83206,2.03874,-5.26147,3.98853,-0.0522461
302,-7.41822e-34,0.19978,0.122458,10.2731,1.63524,2.26883,6.59473,3.98828,-0.0471191
303,-7.42204e-34,0.174995,0.127827,10.2673,1.59559,2.31878,5.70557,3.98633,-0.0493164
304,-7.42587e-34,0.190089,0.120409,10.279,1.54467,2.30295,5.43945,3.98926,-0.0490723
305,-7.42969e-34,0.186909,0.119197,10.2554,1.66546,2.14312,-6.99048,3.98706,-0.0500488
306,-7.43352e-34,0.181002,0.122874,10.2661,1.77878,1.90921,-1.53345,3.98584,-0.0517578
307,-7.43735e-34,0.195734,0.131201,10.2617,1.9254,1.89768,5.91211,3.98877,-0.0476074
308,-7.44117e-34,0.216182,0.101579,10.2463,2.00488,2.01904,-2.16406,3.98682,-0.050293
309,-7.445e-34,0.184111,0.123974,10.2549,1.92312,2.03759,-4.67969,3.98486,-0.0432129
310,-7.44883e-34,0.18197,0.13677,10.2911,1.90752,2.13559,-7.5686,3.98779,-0.0480957
311,-7.45265e-34,0.189575,0.1016,10.2658,1.52622,2.16471,5.90967,3.99072,-0.0495605
312,-7.45648e-34,0.193865,0.118758,10.2745,1.61715,2.19778,2.19141,3.98584,-0.0476074
313,-7.46031e-34,0.184238,0.118766,10.2631,1.55837,2.28261,-0.593018,3.98853,-0.0527344
314,-7.46413e-34,0.190306,0.108201,10.2706,1.67,2.08777,-7.77759,3.9873,-0.0461426
315,-7.46796e-34,0.185981,0.11771,10.2884,1.77768,2.09343,6.65063,3.98584,-0.0527344
316,-7.47178e-34,0.203878,0.11667,10.2612,1.93129,2.02903,-5.46631,3.98486,-0.0505371
317,-7.47561e-34,0.181229,0.122543,10.2572,1.88247,1.95967,6.38501,3.98828,-0.0534668
318,-7.47944e-34,0.192107,0.133215,10.2542,1.87097,1.94146,-7.46362,3.98779,-0.0480957
319,-7.48326e-34,0.210045,0.135576,10.247,1.6492,1.90803,6.23193,3.98486,-0.0480957
320,-7.48709e-34,0.183131,0.139886,10.2501,1.60471,2.15974,1.39941,3.98999,-0.0524902
321,-7.49092e-34,0.206156,0.112849,10.2792,1.4573,2.31573,-5.57544,3.98804,-0.0437012
322,-7.49474e-34,0.18901,0.125284,10.277,1.68337,2.22447,-4.41895,3.98633,-0.0466309
323,-7.49857e-34,0.185769,0.127912,10.277,1.83124,2.12209,0.987305,3.98413,-0.0466309
324,-7.50239e-34,0.196433,0.107263,10.2527,1.86994,2.09332,0.563477,3.98706,-0.0471191
325,-7.50622e-34,0.188819,0.121049,10.2698,2.01023,1.95529,4.91577,3.98853,-0.0512695
326,-7.51005e-34,0.184699,0.136257,10.3074,1.92176,2.11417,4.07715,3.98804,-0.0471191
327,-7.51387e-34,0.183049,0.120736,10.2427,1.60202,2.08175,3.71021,3.98779,-0.0515137
328,-7.5177e-34,0.189962,0.110393,10.2799,1.59595,2.31399,-2.79492,3.98779,-0.0505371
329,-7.52153e-34,0.185107,0.116818,10.261,1.5751,2.32972,0.562744,3.98804,-0.0466309
330,-7.52535e-34,0.193891,0.114862,10.2645,1.61669,2.15867,-4.57715,3.98657,-0.0505371
331,-7.52918e-34,0.17684,0.13546,10.2689,1.76523,2.08792,2.87671,3.98364,-0.048584
332,-7.53301e-34,0.183504,0.134508,10.2794,1.82194,2.01312,4.44995,3.9834,-0.0539551
333,-7.53683e-34,0.193326,0.130091,10.2943,1.88982,1.8141,-3.78955,3.98633,-0.0449219
334,-7.54066e-34,0.192503,0.127229,10.2728,1.92209,1.87855,6.64966,3.98633,-0.0471191
335,-7.54448e-34,0.184462,0.121956,10.2823,1.96018,2.02532,-0.748779,3.98755,-0.0456543
336,-7.54831e-34,0.201253,0.127316,10.2877,1.80829,2.03602,7.69897,3.98633,-0.048584
337,-7.55214e-34,0.193235,0.133416,10.2833,1.46741,2.24393,-4.62964,3.98657,-0.0512695
338,-7.55596e-34,0.170383,0.125034,10.2694,1.58972,2.2331,3.44873,3.98706,-0.0505371
339,-7.55979e-34,0.195211,0.114739,10.2568,1.63767,2.23776,1.35083,3.98706,-0.046875
340,-7.56362e-34,0.176545,0.106965,10.2728,1.69256,2.08541,0.823242,3.98901,-0.052002
341,-7.56744e-34,0.18952,0.106757,10.2766,1.87522,1.97944,7.22803,3.98535,-0.048584
342,-7.57127e-34,0.178968,0.114366,10.2828,1.93421,1.96307,7.48804,3.98706,-0.0515137
343,-7.57509e-34,0.202486,0.12706,10.2513,2.00757,1.94143,0.509033,3.98901,-0.048584
344,-7.57892e-34,0.189744,0.151302,10.2538,1.87276,2.00429,2.24316,3.98657,-0.052002
345,-7.58275e-34,0.191088,0.116383,10.2726,1.77914,2.16507,-5.68213,3.98926,-0.0471191
346,-7.58657e-34,0.196798,0.121866,10.2936,1.66385,2.11735,-6.99219,3.98828,-0.0515137
347,-7.5904e-34,0.198488,0.128395,10.303,1.70173,2.16566,2.87134,3.98755,-0.0456543
348,-7.59423e-34,0.19658,0.111529,10.2939,1.6001,2.12516,-7.83008,3.9873,-0.0480957
349,-7.59805e-34,0.19293,0.106981,10.2779,1.71226,2.21051,2.50195,3.98926,-0.0473633
350,-7.60188e-34,0.182897,0.123439,10.2815,1.73736,2.08136,-7.09375,3.98584,-0.0456543
351,-7.60571e-34,0.194858,0.122905,10.2611,1.83862,2.12373,7.69775,3.9873,-0.0522461
352,-7.60953e-34,0.186632,0.14343,10.27,1.91141,2.12493,-7.88525,3.98901,-0.0510254
353,-7.61336e-34,0.178017,0.142355,10.2828,1.87384,2.0463,4.60303,3.98706,-0.0515137
354,-7.61718e-34,0.198178,0.122747,10.2412,1.7493,2.1078,6.22852,3.9873,-0.048584
355,-7.62101e-34,0.196264,0.128744,10.2817,1.65906,2.06525,-6.51831,3.98706,-0.0505371
356,-7.62484e-34,0.18541,0.127316,10.2498,1.68388,1.96497,6.59814,3.9856,-0.0529785
357,-7.62866e-34,0.189583,0.115511,10.2427,1.6765,2.09811,-3.36963,3.98633,-0.0456543
358,-7.63249e-34,0.195461,0.113032,10.259,1.79371,2.17265,1.08545,3.98901,-0.0490723
359,-7.63632e-34,0.193288,0.138467,10.2662,1.93285,2.0871,5.54688,3.9873,-0.0480957
360,-7.64014e-34,0.186774,0.129073,10.2707,1.78306,2.06141,2.97729,3.98682,-0.0495605
361,-7.64397e-34,0.17166,0.129567,10.2771,1.6274,2.06405,-2.16455,3.9873,-0.0493164
362,-7.6478e-34,0.190769,0.115819,10.2829,1.75942,1.99776,2.34668,3.98755,-0.045166
363,-7.65162e-34,0.181411,0.119936,10.2747,1.60161,2.12465,-3.26807,3.98853,-0.0488281
364,-7.65545e-34,0.183905,0.118401,10.2554,1.68877,1.917,-1.11426,3.98633,-0.0476074
365,-7.65927e-34,0.184238,0.125416,10.2478,1.8194,2.02045,1.40332,3.98682,-0.0490723
366,-7.6631e-34,0.171449,0.118717,10.2774,1.71218,1.97429,3.76538,3.98584,-0.0478516
367,-7.66693e-34,0.205059,0.122156,10.2831,1.87353,1.96123,1.71606,3.98828,-0.0456543
368,-7.67075e-34,0.199868,0.128131,10.2566,1.79015,2.14565,-3.10718,3.98584,-0.0505371
369,-7.67458e-34,0.17648,0.125871,10.2846,1.78242,2.11479,-2.48486,3.99121,-0.0471191
370,-7.67841e-34,0.18638,0.142937,10.2938,1.89253,2.18474,6.75171,3.98853,-0.0500488
371,-7.68223e-34,0.183113,0.121558,10.2926,1.7232,2.13008,1.03149,3.98999,-0.0461426
372,-7.68606e-34,0.181956,0.1467,10.2591,1.622,2.09865,-4.2627,3.98682,-0.0510254
373,-7.68988e-34,0.19252,0.115073,10.2455,1.55358,2.12921,1.76489,3.99097,-0.0512695
374,-7.69371e-34,0.170344,0.124545,10.2853,1.49047,2.26266,-4.63159,3.98804,-0.0456543
375,-7.69754e-34,0.187202,0.0983358,10.2368,1.73352,2.24721,-4.8396,3.98706,-0.0556641
376,-7.70136e-34,0.177997,0.125186,10.2726,1.88165,2.10982,3.65918,3.98657,-0.0505371
377,-7.70666e-34,0.16762,0.108499,10.2738,1.92614,2.00759,-3.63403,3.98755,-0.0500488
378,-7.71431e-34,0.182763,0.125735,10.2873,1.99174,1.93457,-1.16748,3.98682,-0.050293
379,-7.72197e-34,0.198316,0.130668,10.2892,1.93608,2.0933,0.0898438,3.98804,-0.048584
380,-7.72962e-34,0.189314,0.133325,10.2608,1.81482,1.95037,6.01807,3.98779,-0.0515137
381,-7.73727e-34,0.20158,0.117296,10.2755,1.77092,2.16689,0.928223,3.98926,-0.0471191
382,-7.74492e-34,0.180448,0.128982,10.2763,1.68601,2.28277,-0.800293,3.98706,-0.0480957
383,-7.75258e-34,0.181601,0.127346,10.2365,1.69835,2.15541,-3.05762,3.98804,-0.0495605
384,-7.76023e-34,0.178976,0.114024,10.2661,1.59956,2.17549,-1.79932,3.98853,-0.0456543
385,-7.76788e-34,0.195307,0.116687,10.2887,1.64446,2.07424,-0.175049,3.99023,-0.050293
386,-7.77553e-34,0.18207,0.133845,10.2767,1.85319,2.03421,2.97461,3.98877,-0.0446777
387,-7.78319e-34,0.178738,0.120682,10.2839,1.93979,2.05495,1.24341,3.98877,-0.0510254
388,-7.79084e-34,0.214427,0.128049,10.2731,1.87719,1.92381,2.18823,3.98828,-0.0495605
389,-7.79849e-34,0.212874,0.102796,10.2725,1.82276,2.10984,-1.7439,3.98657,-0.0505371
390,-7.80614e-34,0.197157,0.129469,10.2408,1.69579,2.13351,3.08252,3.98657,-0.0510254
391,-7.8138e-34,0.179965,0.14477,10.2434,1.68245,1.96894,-5.83545,3.98608,-0.048584
392,-7.82145e-34,0.172273,0.107897,10.2545,1.57207,2.16013,1.40088,3.98828,-0.0498047
393,-7.8291e-34,0.199115,0.112412,10.2689,1.8121,2.17611,-2.58765,3.9895,-0.0432129
394,-7.83676e-34,0.166709,0.138647,10.2518,1.85867,2.00367,-7.6189,3.98608,-0.0500488
395,-7.84441e-34,0.160141,0.144746,10.2826,1.83593,1.96689,6.07422,3.98511,-0.0471191
396,-7.85206e-34,0.181147,0.127915,10.2411,1.75972,2.16694,1.19141,3.98853,-0.0471191
397,-7.85971e-34,0.20674,0.113399,10.265,1.74356,2.06986,0.827148,3.98608,-0.0498047
398,-7.86737e-34,0.180752,0.13327,10.2678,1.76415,2.1561,-2.21533,3.98584,-0.0456543
399,-7.87502e-34,0.183642,0.123912,10.2272,1.83872,2.09092,-1.01196,3.98828,-0.0493164
400,-7.88267e-34,0.197072,0.146357,10.2567,1.84517,2.03879,0.351562,3.98901,-0.0515137
401,-7.89032e-34,0.19523,0.125859,10.2464,1.91789,1.93367,-5.46924,3.98706,-0.0505371
402,-7.89798e-34,0.181511,0.129961,10.2877,1.74133,2.12263,7.80347,3.98682,-0.0498047
403,-7.90563e-34,0.188054,0.141036,10.2898,1.7088,2.08674,4.92139,3.98413,-0.0461426
404,-7.91328e-34,0.182748,0.141065,10.262,1.72573,2.05813,-5.88403,3.98315,-0.0515137
405,-7.92093e-34,0.181369,0.128173,10.2398,1.77133,2.11317,-6.26025,3.98975,-0.0446777
406,-7.92859e-34,0.185711,0.135601,10.2569,1.81034,1.90565,-2.84473,3.98584,-0.0505371
407,-7.93624e-34,0.196093,0.126441,10.2468,1.68588,2.11082,-3.47803,3.98877,-0.0476074
408,-7.94389e-34,0.180755,0.122682,10.2646,1.61308,2.09819,-7.2002,3.98706,-0.0476074
409,-7.95155e-34,0.172682,0.125126,10.2603,1.62059,2.10544,-1.8501,3.98755,-0.0483398
410,-7.9592e-34,0.171512,0.138815,10.2816,1.70732,2.01064,-4.10327,3.9856,-0.0471191
411,-7.96685e-34,0.193493,0.123474,10.2216,1.94225,2.12903,-7.72388,3.98633,-0.050293
412,-7.9745e-34,0.170571,0.123842,10.2864,2.04179,2.06082,6.70166,3.98682,-0.0490723
413,-7.98216e-34,0.197038,0.125688,10.2864,1.92309,1.94064,6.33398,3.9873,-0.0515137
414,-7.98981e-34,0.194126,0.130743,10.2732,1.70181,2.02509,4.81177,3.98804,-0.0517578
415,-7.99746e-34,0.216735,0.117129,10.2503,1.62684,2.03907,7.80396,3.98633,-0.0446777
416,-8.00511e-34,0.196615,0.143098,10.2288,1.74868,2.12867,0.611572,3.99023,-0.0495605
417,-8.01277e-34,0.195154,0.132276,10.2622,1.7745,2.1695,-5.04663,3.98486,-0.0427246
418,-8.02042e-34,0.191459,0.11499,10.2663,1.7201,2.09381,0.668213,3.9873,-0.0510254
419,-8.02807e-34,0.181235,0.111558,10.2735,1.64589,2.09604,7.64502,3.9873,-0.0480957
420,-8.03572e-34,0.182687,0.107301,10.2489,1.73501,2.15972,0.251953,3.98486,-0.0471191
421,-8.04338e-34,0.188521,0.127623,10.2499,1.87642,2.03482,6.80884,3.98511,-0.0507812
422,-8.05103e-34,0.182703,0.125541,10.2538,1.88014,2.00803,-6.41235,3.98584,-0.0446777
423,-8.05868e-34,0.188963,0.129316,10.2548,1.81533,1.89571,-3.05542,3.98657,-0.0500488
424,-8.06633e-34,0.201,0.137292,10.2858,1.81213,1.92365,2.71509,3.98657,-0.052002
425,-8.07399e-34,0.193564,0.127558,10.27,1.75342,2.08011,-4.89282,3.98755,-0.0495605
426,-8.08164e-34,0.203158,0.132741,10.2732,1.62007,2.16264,4.9729,3.98486,-0.0507812
427,-8.08929e-34,0.179565,0.13149,10.271,1.64418,2.17145,0.825195,3.98779,-0.0495605
428,-8.09695e-34,0.19912,0.121484,10.2996,1.70137,2.24796,3.8186,3.98511,-0.0498047
429,-8.1046e-34,0.183858,0.113217,10.2715,1.79325,2.03672,1.56104,3.98657,-0.0471191
430,-8.11225e-34,0.189475,0.112904,10.2878,1.69687,1.94986,-6.94141,3.9895,-0.045166
431,-8.1199e-34,0.177365,0.104584,10.2805,1.86823,1.98641,-6.72925,3.98804,-0.0476074
432,-8.12756e-34,0.178774,0.118846,10.2704,1.89896,1.89215,-6.15112,3.98682,-0.048584
433,-8.13521e-34,0.187405,0.149812,10.2871,1.91571,2.15029,-5.78101,3.98511,-0.0493164
434,-8.14286e-34,0.174139,0.114474,10.2663,1.74412,2.04865,-3.89282,3.98511,-0.0446777
435,-8.15051e-34,0.197083,0.130928,10.2494,1.71354,1.98818,6.07153,3.9873,-0.0532227
436,-8.15817e-34,0.196368,0.11338,10.2726,1.63199,2.04258,-5.52026,3.98584,-0.0456543
437,-8.16582e-34,0.18567,0.120455,10.2915,1.74128,2.09811,5.80884,3.98779,-0.0505371
438,-8.17347e-34,0.175321,0.11234,10.2696,1.78144,1.97809,-6.20142,3.98535,-0.0515137
439,-8.18112e-34,0.18039,0.125974,10.26,1.76702,2.0039,-4.10596,3.9873,-0.0466309
440,-8.18878e-34,0.179272,0.116472,10.2524,1.94284,2.06323,1.19434,3.98608,-0.0512695
441,-8.19643e-34,0.201757,0.126593,10.2604,1.82606,2.01863,-5.20679,3.98706,-0.0437012
442,-8.20408e-34,0.186041,0.139939,10.278,1.68595,2.04804,3.87158,3.98486,-0.0480957
443,-8.21174e-34,0.179848,0.113393,10.2811,1.76062,2.16458,-5.88818,3.98657,-0.0505371
444,-8.21939e-34,0.190239,0.124205,10.2689,1.59249,2.1144,3.81519,3.98779,-0.0476074
445,-8.22704e-34,0.188455,0.108394,10.2732,1.6639,2.08823,-7.88013,3.98535,-0.0517578
446,-8.23469e-34,0.188056,0.108378,10.2534,1.78769,2.15377,-6.51807,3.98682,-0.0461426
447,-8.24235e-34,0.190931,0.11104,10.2765,1.96623,2.17724,-4.73169,3.98486,-0.0517578
448,-8.25e-34,0.182841,0.100098,10.2627,2.01289,2.0081,0.300293,3.98755,-0.0471191
449,-8.25765e-34,0.185384,0.122746,10.2629,1.78552,2.00429,-2.84985,3.9895,-0.0490723
450,-8.2653e-34,0.20755,0.117514,10.2505,1.78055,1.97299,-6.20215,3.98584,-0.0498047
451,-8.27296e-34,0.195408,0.126197,10.2802,1.83813,2.10879,-0.590332,3.98682,-0.0471191
452,-8.28061e-34,0.189742,0.124675,10.2562,1.71039,2.03106,2.81714,3.98853,-0.0507812
453,-8.28826e-34,0.188719,0.120156,10.2629,1.62556,2.19196,1.7168,3.98755,-0.045166
454,-8.29591e-34,0.187275,0.127533,10.2924,1.71006,2.11796,2.24438,3.9856,-0.0490723
455,-8.30357e-34,0.191463,0.128728,10.2545,1.76567,2.10767,2.45142,3.98779,-0.0446777
456,-8.31122e-34,0.180699,0.115126,10.2834,1.85813,2.0193,4.28931,3.98633,-0.0454102
457,-8.31887e-34,0.180736,0.116585,10.2747,1.90455,1.98892,-1.48022,3.98535,-0.0483398
458,-8.32653e-34,0.20396,0.12448,10.2646,1.83728,1.94489,3.86816,3.9873,-0.0461426
459,-8.33418e-34,0.194632,0.14126,10.2675,1.87204,1.93598,2.34717,3.98706,-0.050293
460,-8.34183e-34,0.212378,0.120095,10.2752,1.75358,2.03802,-3.2146,3.98779,-0.0456543
461,-8.34948e-34,0.179091,0.122757,10.2786,1.71436,2.16171,4.81104,3.98853,-0.0495605
462,-8.35714e-34,0.193152,0.113122,10.2546,1.71738,2.16312,1.18896,3.99023,-0.0512695
463,-8.36479e-34,0.179681,0.126811,10.2928,1.73009,2.13244,1.51294,3.98315,-0.0471191
464,-8.37244e-34,0.16688,0.1254,10.2808,1.79894,2.14322,-1.74463,3.98706,-0.0534668
465,-8.38009e-34,0.183582,0.125104,10.2578,1.80145,1.94899,3.18726,3.98657,-0.0456543
466,-8.38775e-34,0.170213,0.116072,10.2579,1.87455,1.93977,7.91089,3.98462,-0.0441895
467,-8.3954e-34,0.189537,0.119594,10.2721,1.85588,1.98062,6.5957,3.9873,-0.048584
468,-8.40305e-34,0.194329,0.123515,10.2581,1.70465,1.91922,-7.82983,3.98706,-0.0480957
469,-8.4107e-34,0.177726,0.125156,10.2377,1.669,2.11556,-1.6416,3.98853,-0.0541992
470,-8.41836e-34,0.191705,0.104178,10.2934,1.68257,2.0402,-0.695068,3.98657,-0.0446777
471,-8.42601e-34,0.188944,0.109327,10.2689,1.7078,2.12739,-1.95361,3.98633,-0.0524902
472,-8.43366e-34,0.180752,0.117224,10.2937,1.72453,1.99005,-4.8916,3.98657,-0.048584
473,-8.44131e-34,0.172526,0.142264,10.3068,1.76513,2.11448,-7.88037,3.9856,-0.0500488
474,-8.44897e-34,0.170729,0.130556,10.2641,1.7911,2.06417,2.55762,3.98682,-0.0500488
475,-8.45662e-34,0.195931,0.114399,10.2743,1.89937,1.9069,-7.19897,3.98608,-0.0476074
476,-8.46427e-34,0.185824,0.138921,10.2629,1.77478,2.01474,1.24683,3.98633,-0.0507812
477,-8.47193e-34,0.194575,0.150553,10.2895,1.73098,2.08479,-0.484619,3.98608,-0.0466309
478,-8.47958e-34,0.187379,0.137768,10.2817,1.68406,2.1091,-3.58081,3.98706,-0.048584
479,-8.48723e-34,0.190992,0.130299,10.2672,1.65145,2.17268,-0.797363,3.98486,-0.0466309
480,-8.49488e-34,0.19142,0.114222,10.3038,1.63032,2.14839,-6.25586,3.98706,-0.048584
481,-8.50254e-34,0.195791,0.135223,10.2315,1.72181,2.07437,-2.6355,3.98633,-0.0522461
482,-8.51019e-34,0.199047,0.132541,10.2723,1.85795,1.97027,4.65332,3.98853,-0.0471191
483,-8.51784e-34,0.190247,0.134264,10.2734,1.95772,2.09227,0.145996,3.9856,-0.0510254
484,-8.52549e-34,0.198174,0.108598,10.2789,1.81356,1.96159,-5.41553,3.98608,-0.0495605
485,-8.53315e-34,0.184057,0.12824,10.2545,1.77883,2.0807,0.40625,3.98706,-0.0490723
486,-8.5408e-34,0.190577,0.122674,10.2589,1.70125,2.16973,-7.67163,3.98633,-0.0510254
487,-8.54845e-34,0.165533,0.123528,10.2541,1.58083,2.13981,2.66113,3.98779,-0.0461426
488,-8.5561e-34,0.200017,0.129136,10.2423,1.62451,2.0841,2.2417,3.98755,-0.052002
489,-8.56376e-34,0.169246,0.116407,10.2423,1.64994,2.05977,-2.79199,3.98584,-0.041748
490,-8.57141e-34,0.17957,0.098758,10.2749,1.79248,2.0881,0.718994,3.98853,-0.0471191
491,-8.57906e-34,0.18072,0.118412,10.2957,2.02954,1.916,-3.42163,3.98584,-0.0471191
492,-8.58672e-34,0.203819,0.126956,10.2763,1.97427,1.99809,7.43945,3.98413,-0.0500488
493,-8.59437e-34,0.191256,0.136396,10.2591,1.91825,1.9935,2.61011,3.98682,-0.0507812
494,-8.60202e-34,0.19677,0.102736,10.2747,1.74917,2.06604,4.34082,3.98682,-0.0456543
495,-8.60967e-34,0.214811,0.130638,10.2761,1.70368,2.11858,4.18237,3.98779,-0.0510254
496,-8.61733e-34,0.194357,0.118585,10.2924,1.56769,2.21596,5.5481,3.98633,-0.0476074
497,-8.62498e-34,0.198954,0.128629,10.272,1.69254,2.2531,-6.20142,3.98535,-0.048584
498,-8.63263e-34,0.174565,0.120927,10.2573,1.70209,2.08566,-1.48291,3.98755,-0.0517578
499,-8.64028e-34,0.211821,0.105976,10.2619,1.78419,1.94983,7.22559,3.9873,-0.0476074
500,-8.64794e-34,0.168355,0.128002,10.272,1.7732,1.91689,2.34717,3.98706,-0.0476074
501,-8.65559e-34,0.191451,0.112967,10.2615,1.84789,2.06661,-3.47412,3.9856,-0.0456543
502,-8.66324e-34,0.194816,0.112617,10.2423,1.75773,1.91092,-4.67847,3.98438,-0.0490723
503,-8.67089e-34,0.214082,0.132622,10.2562,1.81564,1.96807,1.35205,3.98584,-0.0471191
504,-8.67855e-34,0.190897,0.112008,10.2734,1.70778,1.98408,-4.78613,3.98633,-0.0480957
505,-8.6862e-34,0.178637,0.129247,10.2942,1.5877,2.14545,2.92505,3.98682,-0.0512695
506,-8.69385e-34,0.18069,0.131732,10.2856,1.71695,2.19993,0.982666,3.9873,-0.0461426
507,-8.70151e-34,0.175159,0.117242,10.2653,1.75583,2.16199,-2.21533,3.98584,-0.0529785
508,-8.70916e-34,0.188405,0.119485,10.279,1.86679,2.08654,6.02173,3.98535,-0.048584
509,-8.71681e-34,0.18698,0.116132,10.2764,1.91092,2.05393,2.61011,3.98682,-0.048584
510,-8.72446e-34,0.193162,0.125274,10.247,1.8048,1.9945,-5.25928,3.98682,-0.0500488
511,-8.73212e-34,0.204034,0.124678,10.2514,1.70517,2.11348,3.55225,3.98804,-0.0461426
512,-8.73977e-34,0.177336,0.116283,10.2738,1.69366,2.08098,-3.84424,3.98779,-0.0537109
513,-8.74742e-34,0.198894,0.13865,10.2504,1.59036,2.11576,3.92212,3.98584,-0.0437012
514,-8.75507e-34,0.171737,0.112267,10.264,1.66198,2.23336,-4.52393,3.98633,-0.0490723
515,-8.76273e-34,0.178447,0.113933,10.2825,1.77089,2.09576,-1.43164,3.98828,-0.0456543
516,-8.77038e-34,0.178836,0.12441,10.2894,1.81899,2.07872,0.142334,3.98804,-0.046875
517,-8.77803e-34,0.201724,0.121201,10.253,1.8441,1.82799,-3.99927,3.98633,-0.0512695
518,-8.78568e-34,0.18898,0.117612,10.2524,1.69687,1.89069,5.81104,3.98608,-0.0446777
519,-8.79334e-34,0.210266,0.122088,10.2782,1.92552,1.86426,-6.30859,3.98706,-0.0546875
520,-8.80099e-34,0.178767,0.133462,10.2876,1.80068,2.05462,-6.3606,3.98682,-0.0505371
521,-8.80864e-34,0.169255,0.13299,10.2572,1.62827,2.12888,-4.1084,3.9895,-0.048584
522,-8.81629e-34,0.176186,0.115863,10.2616,1.57002,2.31332,1.03491,3.98779,-0.0495605
523,-8.82395e-34,0.180322,0.126306,10.2447,1.64172,2.17401,-1.43213,3.98853,-0.0524902
524,-8.8316e-34,0.188538,0.111815,10.2546,1.73091,2.00851,-0.329102,3.98779,-0.0480957
525,-8.83925e-34,0.198776,0.122034,10.2705,1.87017,2.12211,-3.37207,3.98779,-0.045166
526,-8.84691e-34,0.19295,0.122461,10.263,1.88539,1.89033,4.54956,3.98804,-0.052002
527,-8.85456e-34,0.19172,0.113024,10.3006,1.94287,1.95946,1.66479,3.9873,-0.0456543
528,-8.86221e-34,0.217272,0.130039,10.2524,1.85042,2.03782,-0.800781,3.98706,-0.0471191
529,-8.86986e-34,0.197304,0.13786,10.2453,1.81856,2.06617,-7.98438,3.98486,-0.052002
530,-8.87752e-34,0.186138,0.108976,10.2824,1.63173,2.10047,0.195801,3.98779,-0.0471191
531,-8.88517e-34,0.191307,0.124754,10.2649,1.71897,2.20687,-3.21167,3.98584,-0.0512695
532,-8.89282e-34,0.179258,0.122414,10.2905,1.57686,2.16727,-5.15259,3.9856,-0.052002
533,-8.90047e-34,0.186661,0.136044,10.2587,1.70721,2.10377,2.24268,3.98682,-0.052002
534,-8.90813e-34,0.170661,0.120584,10.235,1.77845,2.0412,5.86401,3.98584,-0.050293
535,-8.91578e-34,0.179224,0.112176,10.2479,1.94197,2.00057,0.880615,3.9856,-0.048584
536,-8.92343e-34,0.185539,0.110517,10.2669,1.80442,2.00542,3.70825,3.98901,-0.0500488
537,-8.93108e-34,0.177374,0.136009,10.2364,1.82238,2.05444,1.92651,3.98779,-0.0432129
538,-8.93874e-34,0.194427,0.130867,10.2557,1.81528,2.18536,1.19067,3.98926,-0.0490723
539,-8.94639e-34,0.192749,0.118077,10.3108,1.65299,2.1787,3.60742,3.98608,-0.0495605
540,-8.95404e-34,0.180428,0.138433,10.2674,1.51267,2.10298,-6.99072,3.9873,-0.0466309
541,-8.9617e-34,0.195702,0.115802,10.2534,1.66941,2.16817,-3.00537,3.98828,-0.0498047
542,-8.96935e-34,0.191814,0.123746,10.2506,1.8097,2.03628,5.39038,3.98657,-0.0471191
543,-8.977e-34,0.172819,0.111331,10.2467,1.83867,2.0296,7.33032,3.9873,-0.052002
544,-8.98465e-34,0.170805,0.124743,10.3015,1.76761,1.98728,4.17822,3.99072,-0.0500488
545,-8.99231e-34,0.188608,0.144064,10.2797,1.81928,1.9351,7.11987,3.98804,-0.0510254
546,-8.99996e-34,0.180729,0.126004,10.2727,1.74348,1.94965,0.197021,3.98657,-0.0498047
547,-9.00761e-34,0.185232,0.130402,10.253,1.69182,2.12923,-0.430176,3.98462,-0.0449219
548,-9.01526e-34,0.192374,0.126406,10.2857,1.65176,2.11448,5.44409,3.98584,-0.0480957
549,-9.02292e-34,0.183787,0.126544,10.2627,1.67363,2.0849,0.928467,3.98877,-0.0446777
550,-9.03057e-34,0.200541,0.117017,10.249,1.82245,2.04135,3.97192,3.98828,-0.0505371
551,-9.03822e-34,0.182174,0.127475,10.2772,1.7921,1.99983,3.39429,3.98877,-0.0490723
552,-9.04587e-34,0.197254,0.12275,10.255,1.74779,1.989,3.92017,3.98779,-0.0466309
553,-9.05353e-34,0.182253,0.124412,10.2908,1.93052,1.98001,7.33301,3.98535,-0.0507812
554,-9.06118e-34,0.198245,0.100573,10.2511,1.87819,2.03423,-6.8313,3.98584,-0.0427246
555,-9.06883e-34,0.198714,0.1198,10.2529,1.76697,2.0226,3.13452,3.98706,-0.0515137
556,-9.07649e-34,0.186942,0.11803,10.2672,1.67581,2.05772,1.56079,3.98682,-0.0500488
557,-9.08414e-34,0.188813,0.134013,10.249,1.65588,2.22311,-6.20508,3.98828,-0.0515137
558,-9.09179e-34,0.173847,0.128432,10.2878,1.7161,2.17239,-5.99487,3.98804,-0.0515137
559,-9.09944e-34,0.183618,0.120916,10.2821,1.73293,2.08029,1.87231,3.9895,-0.0490723
560,-9.1071e-34,0.193315,0.135136,10.2298,1.77087,2.10285,-6.73071,3.98877,-0.050293
561,-9.11475e-34,0.191671,0.13134,10.2799,1.89302,1.94799,1.13892,3.98828,-0.0446777
562,-9.1224e-34,0.177457,0.119859,10.301,1.74295,2.02309,-4.99487,3.9856,-0.0515137
563,-9.13005e-34,0.219866,0.123539,10.2482,1.59221,2.02163,4.91406,3.98999,-0.0446777
564,-9.13771e-34,0.183857,0.119244,10.2607,1.74118,2.22045,0.246826,3.98877,-0.0466309
565,-9.14536e-34,0.204274,0.114927,10.2902,1.63001,2.05372,1.40112,3.98853,-0.0537109
566,-9.15301e-34,0.178157,0.128718,10.2395,1.66754,2.13382,0.668701,3.98706,-0.0476074
567,-9.16066e-34,0.184283,0.141185,10.2676,1.85314,2.10249,5.44165,3.9873,-0.0532227
568,-9.16832e-34,0.177643,0.12379,10.2534,1.83234,2.09217,-4.52686,3.98853,-0.0476074
569,-9.17597e-34,0.19993,0.106921,10.2457,1.95393,1.95365,1.40186,3.98804,-0.0510254
570,-9.18362e-34,0.201142,0.116926,10.2885,1.77466,1.82053,-2.00757,3.9873,-0.0458984
571,-9.19127e-34,0.209056,0.120761,10.2825,1.75017,1.99893,5.80835,3.98804,-0.0490723
572,-9.19893e-34,0.189576,0.129397,10.2544,1.78713,1.98515,-4.84082,3.98804,-0.0512695
573,-9.20658e-34,0.194961,0.115459,10.2792,1.65524,1.96236,4.75903,3.98804,-0.0441895
574,-9.21423e-34,0.198498,0.103214,10.2751,1.64039,2.0967,1.13965,3.98779,-0.052002
575,-9.22189e-34,0.188216,0.130973,10.2605,1.81859,1.9746,5.91406,3.9873,-0.0495605
576,-9.22954e-34,0.191017,0.125148,10.2741,1.65604,2.12465,3.55151,3.98877,-0.0471191
577,-9.23719e-34,0.204837,0.128657,10.2448,1.84379,2.01005,-5.78394,3.98682,-0.0532227
578,-9.24484e-34,0.187862,0.137459,10.2735,1.87699,1.96553,2.40137,3.98584,-0.048584
579,-9.2525e-34,0.211468,0.134674,10.2488,1.86467,1.98626,-4.05322,3.98706,-0.0529785
580,-9.26015e-34,0.198392,0.123677,10.2738,1.92552,2.07665,3.92163,3.98657,-0.0471191
581,-9.2678e-34,0.201932,0.115604,10.3106,1.66262,1.99924,-1.48364,3.98804,-0.0510254
582,-9.27545e-34,0.19502,0.121369,10.2642,1.63296,2.18336,6.22461,3.99023,-0.0488281
583,-9.28311e-34,0.177129,0.130046,10.2664,1.62433,2.11563,-4.52759,3.98926,-0.0476074
584,-9.29076e-34,0.189846,0.126162,10.2381,1.67668,2.08664,-0.328857,3.98755,-0.0517578
585,-9.29841e-34,0.163148,0.121552,10.2692,1.76065,2.14483,-5.5752,3.98804,-0.0495605
586,-9.30606e-34,0.167451,0.123653,10.2593,1.81234,1.9726,1.29858,3.98682,-0.0515137
587,-9.31372e-34,0.187047,0.119107,10.2455,1.98805,2.0246,-3.58179,3.98779,-0.048584
588,-9.32137e-34,0.191773,0.134813,10.2918,1.90429,2.04135,-1.58716,3.98682,-0.0461426
589,-9.32902e-34,0.169852,0.129053,10.2768,1.83623,1.96858,4.2356,3.98706,-0.050293
590,-9.33668e-34,0.200454,0.110305,10.2542,1.70768,1.98316,-5.67871,3.98657,-0.048584
591,-9.34433e-34,0.194887,0.121288,10.273,1.59461,2.21466,5.65356,3.98608,-0.0507812
592,-9.35198e-34,0.184405,0.130818,10.2762,1.65973,2.23822,4.448,3.98535,-0.0495605
593,-9.35963e-34,0.174898,0.100694,10.3165,1.69861,2.11855,-2.89771,3.98608,-0.0500488
594,-9.36729e-34,0.196613,0.103985,10.2566,1.72299,2.11668,-0.0664062,3.9873,-0.0512695
595,-9.37494e-34,0.179515,0.130305,10.2766,1.86236,2.0766,5.28662,3.98584,-0.048584
596,-9.38259e-34,0.193383,0.111555,10.2624,1.80944,2.05516,3.65869,3.98706,-0.0517578
597,-9.39024e-34,0.189357,0.1261,10.2659,1.81625,1.99123,0.927734,3.9895,-0.0476074
598,-9.3979e-34,0.19697,0.122859,10.2367,1.72604,2.06412,2.0271,3.99097,-0.052002
599,-9.40555e-34,0.196741,0.128934,10.2913,1.60207,2.16427,5.49487,3.98706,-0.0466309
600,-9.4132e-34,0.211052,0.134845,10.2429,1.74707,2.09904,-7.72461,3.98682,-0.0463867
601,-9.42085e-34,0.190904,0.106716,10.2716,1.71574,2.09058,-1.0105,3.98706,-0.0527344
602,-9.42851e-34,0.172457,0.12218,10.2535,1.83003,2.02711,1.45117,3.99023,-0.0515137
603,-9.43616e-34,0.200073,0.131498,10.2936,1.90852,2.0298,2.86865,3.9895,-0.0522461
604,-9.44381e-34,0.2055,0.122196,10.2708,1.76628,2.04614,4.76245,3.98535,-0.048584
605,-9.45146e-34,0.202566,0.143768,10.2732,1.74674,2.11238,-4.26318,3.9873,-0.0505371
606,-9.45912e-34,0.20701,0.120791,10.2469,1.70342,2.00544,2.39893,3.98779,-0.0490723
607,-9.46677e-34,0.172761,0.141597,10.2364,1.75345,2.13349,-6.15161,3.9873,-0.0456543
608,-9.47442e-34,0.208144,0.117913,10.2911,1.76159,2.11738,-0.699951,3.99023,-0.0527344
609,-9.48208e-34,0.185142,0.106196,10.2486,1.66065,2.14435,-0.643799,3.98755,-0.0466309
610,-9.48973e-34,0.175106,0.132019,10.2603,1.65868,2.17795,6.28345,3.98584,-0.0480957
611,-9.49738e-34,0.196654,0.108968,10.2522,1.78956,1.90752,1.61426,3.98608,-0.0466309
612,-9.50503e-34,0.184157,0.131099,10.2471,1.79699,1.99632,-2.00269,3.98389,-0.0461426
613,-9.51269e-34,0.205079,0.113982,10.2661,1.84894,1.94018,0.0910645,3.98755,-0.0527344
614,-9.52034e-34,0.19827,0.103783,10.2771,1.74272,2.12158,6.4375,3.98804,-0.0456543
615,-9.52799e-34,0.188582,0.144646,10.2882,1.89323,2.12593,7.01392,3.98877,-0.0546875
616,-9.53564e-34,0.182472,0.122357,10.2675,1.77502,2.10774,4.86426,3.98804,-0.048584
617,-9.5433e-34,0.187549,0.131127,10.2679,1.64075,2.12183,-0.959717,3.98828,-0.0534668
618,-9.55095e-34,0.17998,0.110172,10.2562,1.68201,1.9391,-4.00098,3.9873,-0.0498047
619,-9.5586e-34,0.18062,0.125136,10.2565,1.767,2.16402,0.300537,3.98779,-0.0461426
620,-9.56625e-34,0.191111,0.10715,10.2966,1.79438,2.06097,-1.16821,3.98755,-0.0505371
621,-9.57391e-34,0.189613,0.114938,10.2828,1.77097,2.14573,-7.88257,3.98706,-0.0476074
622,-9.58156e-34,0.176483,0.120494,10.2786,1.88636,2.02936,-3.53076,3.98877,-0.0500488
623,-9.58921e-34,0.189061,0.159063,10.2713,1.94417,2.08753,-5.04736,3.98535,-0.0510254
624,-9.59687e-34,0.18741,0.144546,10.2444,1.9619,2.03761,4.17847,3.99097,-0.0427246
625,-9.60452e-34,0.187231,0.129454,10.2916,1.68286,2.1861,-6.30786,3.98657,-0.0527344
626,-9.61217e-34,0.199772,0.120305,10.2437,1.57771,2.14102,2.45068,3.98804,-0.0471191
627,-9.61982e-34,0.190841,0.105357,10.2609,1.52197,2.27839,5.12427,3.9895,-0.0549316
628,-9.62748e-34,0.195111,0.125145,10.2724,1.86725,2.20654,6.01855,3.98755,-0.0510254
629,-9.63513e-34,0.184914,0.127787,10.2882,1.99061,1.98108,-2.74341,3.98828,-0.0515137
630,-9.64278e-34,0.188928,0.145646,10.2452,1.87781,2.00767,7.54248,3.98584,-0.0493164
631,-9.65043e-34,0.194089,0.116586,10.2675,1.81364,2.02411,3.39526,3.98779,-0.0466309
632,-9.65809e-34,0.191091,0.126822,10.2813,1.69041,2.12396,1.66357,3.98828,-0.0498047
633,-9.66574e-34,0.181296,0.138753,10.2369,1.59648,2.07575,-3.83911,3.98413,-0.0461426
634,-9.67339e-34,0.199419,0.106612,10.2678,1.67348,2.05462,4.86426,3.98779,-0.0495605
635,-9.68104e-34,0.19236,0.109611,10.2424,1.79648,2.19127,2.97583,3.98779,-0.0510254
636,-9.6887e-34,0.18673,0.12509,10.2623,1.8598,2.13039,5.54639,3.98779,-0.0466309
637,-9.69635e-34,0.192259,0.114176,10.2929,1.74938,2.00357,-3.99927,3.98608,-0.050293
638,-9.704e-34,0.197883,0.128059,10.2774,1.77194,1.88582,2.1377,3.98682,-0.0471191
639,-9.71166e-34,0.197463,0.120943,10.2417,1.77263,2.12859,6.22925,3.98706,-0.0537109
640,-9.71931e-34,0.190133,0.114671,10.2653,1.83454,2.1384,3.49854,3.98877,-0.0490723
641,-9.72696e-34,0.193151,0.112128,10.2504,1.79269,2.1871,4.96802,3.98901,-0.0500488
642,-9.73461e-34,0.187708,0.130647,10.2528,1.7326,1.98413,-5.94043,3.98633,-0.0517578
643,-9.74227e-34,0.191529,0.117001,10.2646,1.85672,1.98106,-0.171631,3.9873,-0.0495605
644,-9.74992e-34,0.176821,0.129855,10.2455,1.54818,2.06097,4.13184,3.98633,-0.050293
645,-9.75757e-34,0.185767,0.11519,10.2584,1.60348,2.09202,4.70947,3.98584,-0.0480957
646,-9.76522e-34,0.19338,0.124564,10.2667,1.80104,2.10649,2.97437,3.98877,-0.0515137
647,-9.77288e-34,0.170258,0.112573,10.2714,1.85519,2.11702,-0.430908,3.98535,-0.0441895
648,-9.78053e-34,0.189637,0.134812,10.2758,1.81292,1.93792,-0.327393,3.98657,-0.0480957
649,-9.78818e-34,0.201383,0.111417,10.2701,1.73034,2.09993,-2.74268,3.98779,-0.050293
650,-9.79583e-34,0.193538,0.122464,10.2715,1.8067,2.17967,3.552,3.98828,-0.0441895
651,-9.80349e-34,0.200987,0.124064,10.2643,1.59474,2.06366,-4.41846,3.98584,-0.0510254
652,-9.81114e-34,0.181996,0.130783,10.2624,1.61293,1.91986,-1.3252,3.98706,-0.048584
653,-9.81879e-34,0.190833,0.124349,10.2908,1.77151,1.95444,-4.05225,3.98657,-0.0500488
654,-9.82644e-34,0.177005,0.107853,10.2772,1.95088,2.12012,2.13623,3.98804,-0.0507812
655,-9.8341e-34,0.17388,0.124125,10.3031,1.90263,2.13548,-5.52197,3.9873,-0.0458984
656,-9.84175e-34,0.191652,0.140211,10.2667,1.71249,2.03536,0.824219,3.98853,-0.0537109
657,-9.8494e-34,0.185023,0.136927,10.2975,1.75084,1.93503,-6.73022,3.98853,-0.0456543
658,-9.85706e-34,0.212522,0.13704,10.3038,1.70806,2.09773,-2.73999,3.98608,-0.052002
659,-9.86471e-34,0.199972,0.121309,10.2486,1.718,2.04043,-0.644287,3.98779,-0.048584
660,-9.87236e-34,0.178209,0.13331,10.2887,1.71669,2.07662,-3.31836,3.98706,-0.0446777
661,-9.88001e-34,0.185239,0.130063,10.2387,1.78739,2.0519,3.55396,3.98682,-0.0500488
662,-9.88767e-34,0.174702,0.130859,10.2547,1.79973,2.03769,2.03271,3.98682,-0.045166
663,-9.89532e-34,0.194407,0.119021,10.2713,1.72197,1.95934,-4.05322,3.9873,-0.0546875
664,-9.90297e-34,0.192736,0.126501,10.2687,1.6786,2.04094,-5.52148,3.98682,-0.0495605
665,-9.91062e-34,0.193141,0.12776,10.2525,1.79205,2.03633,6.80688,3.98657,-0.0505371
666,-9.91828e-34,0.180309,0.134001,10.2651,1.78613,2.13513,-0.642334,3.98657,-0.0512695
667,-9.92593e-34,0.181715,0.127358,10.2469,1.74318,2.07952,-7.35669,3.98633,-0.0476074
668,-9.93358e-34,0.19118,0.113761,10.2658,1.7357,2.03408,7.96045,3.98706,-0.0524902
669,-9.94123e-34,0.199599,0.128627,10.2732,1.67607,2.03915,-0.853271,3.98706,-0.0456543
670,-9.94889e-34,0.182415,0.125638,10.2829,1.74876,2.1256,-0.226807,3.98975,-0.0480957
671,-9.95654e-34,0.1773,0.12566,10.2641,1.71669,2.03018,2.13818,3.98633,-0.0515137
672,-9.96419e-34,0.205614,0.128214,10.2512,1.79382,1.96302,-0.590576,3.98682,-0.0471191
673,-9.97185e-34,0.209118,0.129061,10.2471,1.84376,1.94906,-6.25732,3.98804,-0.0527344
674,-9.9795e-34,0.203686,0.111647,10.2714,1.80404,1.87852,-0.959229,3.98828,-0.0429688
675,-9.98715e-34,0.19682,0.12775,10.2813,1.78921,2.05959,3.97021,3.98926,-0.0551758
676,-9.9948e-34,0.188154,0.125824,10.2697,1.82747,1.99184,-4.78931,3.98853,-0.048584
677,-1.00025e-33,0.184048,0.11848,10.2772,1.77389,2.10549,-7.62622,3.99146,-0.0515137
678,-1.00101e-33,0.195855,0.111616,10.2459,1.68268,2.0194,-5.51953,3.98535,-0.0483398
679,-1.00178e-33,0.205195,0.107794,10.28,1.63403,2.16451,4.13159,3.98608,-0.0495605
680,-1.00254e-33,0.167936,0.126671,10.2739,1.7389,2.07985,2.86938,3.98901,-0.052002
681,-1.00331e-33,0.201039,0.120738,10.2846,1.81175,2.11287,7.0166,3.98682,-0.0466309
682,-1.00407e-33,0.213314,0.131301,10.2804,1.88121,2.05603,6.54272,3.98804,-0.0510254
683,-1.00484e-33,0.192877,0.13414,10.2732,1.72896,1.96607,5.12524,3.98828,-0.0505371
684,-1.0056e-33,0.179645,0.124892,10.2944,1.66767,2.11317,4.97095,3.98633,-0.041748
685,-1.00637e-33,0.210009,0.13176,10.3002,1.70809,1.99317,2.24194,3.9873,-0.0532227
686,-1.00713e-33,0.19142,0.121769,10.2521,1.6797,2.00255,2.55981,3.98511,-0.0446777
687,-1.0079e-33,0.193497,0.118823,10.2941,1.81513,2.04427,4.49707,3.98779,-0.0527344
688,-1.00866e-33,0.194191,0.13475,10.2523,1.76341,2.03928,2.08618,3.98633,-0.0446777
689,-1.00943e-33,0.194822,0.136264,10.2608,1.82107,1.96446,6.75537,3.98608,-0.0505371
690,-1.01019e-33,0.18736,0.122594,10.2708,1.86902,1.88236,-3.42334,3.98706,-0.0483398
691,-1.01096e-33,0.189929,0.118951,10.2846,1.80055,2.04304,-0.641846,3.98608,-0.0490723
692,-1.01172e-33,0.193012,0.130108,10.2632,1.75698,2.11924,0.458496,3.9873,-0.0488281
693,-1.01249e-33,0.188059,0.118674,10.279,1.83539,2.11597,4.9707,3.98657,-0.0466309
694,-1.01326e-33,0.209424,0.128112,10.2673,1.77035,2.18331,5.38965,3.9873,-0.0510254
695,-1.01402e-33,0.200971,0.122944,10.2603,1.70066,2.15329,7.12036,3.98755,-0.048584
696,-1.01479e-33,0.190374,0.122647,10.2575,1.71416,2.0779,-2.52759,3.98413,-0.0432129
697,-1.01555e-33,0.197748,0.116863,10.265,1.73439,2.1404,-5.104,3.98853,-0.0493164
698,-1.01632e-33,0.199854,0.128777,10.2814,1.85836,2.04701,4.33911,3.98853,-0.0456543
699,-1.01708e-33,0.181108,0.11893,10.2674,1.85398,2.00923,-1.69287,3.98779,-0.0515137
700,-1.01785e-33,0.18025,0.116678,10.2632,1.786,2.12939,-4.73584,3.98779,-0.0490723
701,-1.01861e-33,0.179317,0.133916,10.2626,1.69766,2.03679,0.458496,3.9873,-0.0505371
702,-1.01938e-33,0.173896,0.135206,10.2643,1.72028,2.06177,4.54785,3.98901,-0.0541992
703,-1.02014e-33,0.209064,0.125755,10.2802,1.74038,2.06966,-0.90625,3.98755,-0.0490723
704,-1.02091e-33,0.19088,0.122487,10.2516,1.72812,2.27104,-1.27271,3.9873,-0.0505371
705,-1.02167e-33,0.193696,0.134475,10.2472,1.66329,2.20526,-7.14697,3.98633,-0.0437012
706,-1.02244e-33,0.185017,0.125647,10.2637,1.74182,2.07726,2.97534,3.98804,-0.0471191
707,-1.0232e-33,0.18337,0.129844,10.2751,1.8244,2.13625,-2.95117,3.98706,-0.0505371
708,-1.02397e-33,0.189059,0.125393,10.265,1.75601,2.13408,0.773926,3.98682,-0.0466309
709,-1.02473e-33,0.183125,0.121733,10.281,1.7586,2.11704,5.07617,3.98608,-0.0498047
710,-1.0255e-33,0.186957,0.103823,10.2791,1.72584,2.02404,5.23047,3.98853,-0.0461426
711,-1.02626e-33,0.189524,0.112676,10.2999,1.78372,1.92373,-3.26685,3.98755,-0.0507812
712,-1.02703e-33,0.195639,0.110482,10.2589,1.8504,2.01523,-4.68359,3.98779,-0.0476074
713,-1.0278e-33,0.195877,0.134569,10.2666,1.79925,2.14017,1.92822,3.98657,-0.0524902
714,-1.02856e-33,0.193534,0.128515,10.2495,1.75706,2.11548,6.12402,3.98706,-0.0493164
715,-1.02933e-33,0.198642,0.120286,10.2726,1.85544,1.99909,4.86475,3.98755,-0.048584
716,-1.03009e-33,0.201975,0.117711,10.2826,1.7264,2.09289,-0.698242,3.98901,-0.0527344
717,-1.03086e-33,0.184962,0.132787,10.2848,1.71385,2.00431,-7.88159,3.98633,-0.0495605
718,-1.03162e-33,0.176333,0.141817,10.2728,1.73849,2.14424,2.97803,3.98608,-0.0490723
719,-1.03239e-33,0.184269,0.135986,10.2692,1.8016,2.12047,7.85229,3.98926,-0.0480957
720,-1.03315e-33,0.20094,0.128449,10.2754,1.79179,1.99666,-1.74609,3.98804,-0.0437012
721,-1.03392e-33,0.186664,0.11128,10.2467,1.73939,2.04668,-2.58862,3.99048,-0.0500488
722,-1.03468e-33,0.189418,0.126695,10.2624,1.78603,2.17076,-4.63159,3.98828,-0.0456543
723,-1.03545e-33,0.195452,0.136376,10.2362,1.7755,2.07319,-4.68311,3.98755,-0.0522461
724,-1.03621e-33,0.195329,0.10687,10.2512,1.6577,2.08536,-6.72974,3.98828,-0.045166
725,-1.03698e-33,0.215571,0.122172,10.2973,1.79166,2.07306,0.560059,3.98975,-0.0490723
726,-1.03774e-33,0.190259,0.1254,10.2314,1.65355,2.01464,-5.99487,3.98779,-0.0507812
727,-1.03851e-33,0.164058,0.124621,10.2311,1.68298,2.10731,-2.2168,3.9873,-0.0471191
728,-1.03927e-33,0.185074,0.12209,10.2621,1.68375,2.07442,-3.00244,3.98633,-0.0510254
729,-1.04004e-33,0.183776,0.133407,10.2606,1.80378,2.15188,7.06885,3.98682,-0.0471191
730,-1.0408e-33,0.19225,0.115654,10.3094,1.63263,2.07514,6.8064,3.98682,-0.0500488
731,-1.04157e-33,0.202748,0.114385,10.2271,1.40456,2.11492,-2.16479,3.9873,-0.048584
732,-1.04234e-33,0.192173,0.0969205,10.2469,1.98254,2.17998,-7.04272,3.98682,-0.046875
733,-1.0431e-33,0.190414,0.112576,10.2885,2.15672,1.9557,3.55542,3.98584,-0.0488281
734,-1.04387e-33,0.175317,0.114048,10.2978,1.81008,1.77348,-1.48291,3.98755,-0.045166
735,-1.04463e-33,0.198749,0.120387,10.3178,1.66085,2.22762,-7.62085,3.98779,-0.0537109
736,-1.0454e-33,0.199286,0.109824,10.2698,1.39116,2.31092,-1.11401,3.98608,-0.0461426
737,-1.04616e-33,0.199475,0.120191,10.2765,1.60686,1.95695,6.17554,3.98804,-0.0461426
738,-1.04693e-33,0.193831,0.132982,10.2335,2.31881,1.91095,2.40161,3.9856,-0.050293
739,-1.04769e-33,0.196594,0.16832,10.2928,2.21038,1.80998,-3.31812,3.98682,-0.0476074
740,-1.04846e-33,0.201995,0.115881,10.3008,1.29372,2.04478,-5.26343,3.99023,-0.0532227
741,-1.04922e-33,0.178915,0.0952026,10.2594,1.03074,2.38417,-4.26562,3.98926,-0.045166
742,-1.04999e-33,0.168021,0.113909,10.2388,1.5274,2.26919,-0.749268,3.98804,-0.0495605
743,-1.05075e-33,0.177737,0.127719,10.241,2.17572,1.84522,2.18823,3.98828,-0.0466309
744,-1.05152e-33,0.199053,0.128279,10.2736,2.27882,1.61349,-1.37378,3.98438,-0.046875
745,-1.05228e-33,0.207147,0.139733,10.3124,1.90111,1.99855,-1.79712,3.98682,-0.0532227
746,-1.05305e-33,0.18184,0.12679,10.2536,1.50683,2.36878,3.34058,3.9895,-0.0466309
747,-1.05381e-33,0.173162,0.103621,10.2427,1.48322,2.15818,5.81055,3.98633,-0.0500488
748,-1.05458e-33,0.19843,0.111095,10.2707,1.72906,1.73042,-0.12085,3.98877,-0.0515137
749,-1.05534e-33,0.197148,0.103701,10.2597,1.93183,2.10155,-7.30811,3.98926,-0.0476074
750,-1.05611e-33,0.199624,0.122914,10.2631,2.04878,2.46245,6.43701,3.98877,-0.0490723
751,-1.05688e-33,0.151879,0.130434,10.2814,1.79566,2.1704,1.29736,3.98779,-0.0456543
752,-1.05764e-33,0.169413,0.107539,10.2701,1.58959,1.78908,-6.83301,3.98706,-0.0495605
753,-1.05841e-33,0.199977,0.11282,10.2348,1.80132,1.86292,-1.3252,3.9873,-0.0456543
754,-1.05917e-33,0.206309,0.120172,10.2396,1.81021,1.87148,-6.04517,3.98608,-0.0480957
755,-1.05994e-33,0.192672,0.110285,10.2975,1.64902,2.23979,-3.05469,3.98584,-0.0490723
756,-1.0607e-33,0.182349,0.142784,10.299,1.79845,2.39152,3.92188,3.98657,-0.043457
757,-1.06147e-33,0.173023,0.114192,10.2644,1.74914,1.93897,2.81958,3.98682,-0.0483398
758,-1.06223e-33,0.181741,0.127014,10.2705,1.81549,1.79656,-4.57544,3.9856,-0.0466309
759,-1.063e-33,0.22147,0.135694,10.2573,1.68793,1.91474,-2.73877,3.98511,-0.0534668
760,-1.06376e-33,0.191543,0.105022,10.276,1.70675,2.26281,3.81714,3.98633,-0.048584
761,-1.06453e-33,0.180059,0.147234,10.2654,1.90129,2.20523,1.40234,3.9873,-0.0500488
762,-1.06529e-33,0.169126,0.131086,10.2987,1.75237,1.89512,-6.51929,3.98755,-0.052002
763,-1.06606e-33,0.19627,0.139642,10.2598,1.67702,1.76336,7.59058,3.98901,-0.0471191
764,-1.06682e-33,0.192413,0.118449,10.2648,1.767,2.11766,6.59961,3.98462,-0.0498047
765,-1.06759e-33,0.183516,0.121944,10.2959,1.82742,2.35203,-7.6228,3.98877,-0.0461426
766,-1.06835e-33,0.17893,0.126391,10.2934,1.65599,2.07293,-7.4646,3.98828,-0.052002
767,-1.06912e-33,0.174429,0.11247,10.2738,1.69057,1.91062,-7.09375,3.98584,-0.0495605
768,-1.06988e-33,0.18761,0.122996,10.2314,1.78885,2.0529,0.0407715,3.98584,-0.045166
769,-1.07065e-33,0.172244,0.132191,10.2541,1.79891,2.03754,3.76172,3.98853,-0.0512695
770,-1.07142e-33,0.189206,0.14263,10.2779,1.78196,1.98556,-7.35791,3.9873,-0.0461426
771,-1.07218e-33,0.189703,0.129564,10.2476,1.92112,2.1507,-3.89478,3.98657,-0.0505371
772,-1.07295e-33,0.175037,0.143949,10.2771,1.87296,1.97978,1.61353,3.98657,-0.0466309
773,-1.07371e-33,0.195849,0.114572,10.2873,1.6035,1.77079,1.71582,3.98853,-0.048584
774,-1.07448e-33,0.204303,0.103349,10.276,1.38363,2.09422,1.71777,3.98706,-0.0493164
775,-1.07524e-33,0.203635,0.114716,10.236,1.70176,2.43976,1.66797,3.98486,-0.0454102
776,-1.07601e-33,0.163079,0.117943,10.2391,1.85047,2.33095,4.86401,3.98779,-0.050293
777,-1.07677e-33,0.180466,0.132282,10.2623,1.87337,1.74187,-4.52783,3.98901,-0.045166
778,-1.07754e-33,0.185765,0.105431,10.2651,1.88562,1.76743,2.13818,3.98657,-0.0480957
779,-1.0783e-33,0.204979,0.122085,10.263,1.70347,1.91448,-4.68237,3.98706,-0.0476074
780,-1.07907e-33,0.211517,0.114303,10.2501,1.64925,2.26284,3.65601,3.98926,-0.0456543
781,-1.07983e-33,0.192881,0.115162,10.2856,1.70914,2.0599,3.97681,3.98486,-0.0517578
782,-1.0806e-33,0.194244,0.108961,10.2636,1.79038,2.06023,-1.69165,3.98657,-0.0461426
783,-1.08136e-33,0.193452,0.11794,10.2588,1.74599,1.88833,7.64648,3.98633,-0.0498047
784,-1.08213e-33,0.19737,0.124374,10.2575,1.65696,2.04371,7.38135,3.98853,-0.0490723
785,-1.08289e-33,0.176087,0.129106,10.2702,1.7023,2.1756,6.38623,3.9873,-0.0480957
786,-1.08366e-33,0.18318,0.130764,10.267,1.74694,2.18843,-6.78027,3.98682,-0.0532227
787,-1.08442e-33,0.190085,0.129598,10.299,1.76454,1.9892,5.33765,3.98706,-0.0466309
788,-1.08519e-33,0.213413,0.110253,10.3024,1.83119,1.87783,0.826172,3.98706,-0.048584
789,-1.08596e-33,0.212413,0.122951,10.287,1.74671,1.96884,-4.78711,3.98682,-0.0427246
790,-1.08672e-33,0.198516,0.118696,10.2591,1.79461,2.35984,1.1936,3.98657,-0.0524902
791,-1.08749e-33,0.178299,0.10664,10.2627,1.84374,2.13543,2.82007,3.98657,-0.0471191
792,-1.08825e-33,0.201575,0.124605,10.2517,1.75378,1.9871,-0.484131,3.98584,-0.0473633
793,-1.08902e-33,0.18781,0.128106,10.2679,1.63024,1.79904,-6.46582,3.98706,-0.0507812
794,-1.08978e-33,0.194919,0.096603,10.2785,1.66293,2.06499,-2.42261,3.98413,-0.0456543
795,-1.09055e-33,0.188715,0.0955737,10.267,1.65878,2.13633,-6.36523,3.98999,-0.0517578
796,-1.09131e-33,0.195536,0.126527,10.2472,1.82443,2.17744,0.93042,3.98755,-0.0480957
797,-1.09208e-33,0.173078,0.147672,10.252,2.00508,2.05383,-1.48218,3.98682,-0.0490723
798,-1.09284e-33,0.17936,0.127262,10.2597,1.80555,1.91525,-0.692383,3.98462,-0.0527344
799,-1.09361e-33,0.180602,0.125783,10.2847,1.55735,2.11212,4.12988,3.98779,-0.0480957
800,-1.09437e-33,0.199668,0.116718,10.2809,1.52681,2.34404,-0.644043,3.98779,-0.0541992
801,-1.09514e-33,0.187332,0.11375,10.2319,1.55801,2.21512,-5.94116,3.98706,-0.0466309
802,-1.0959e-33,0.189126,0.131195,10.2874,1.83634,2.06809,-3.7915,3.98779,-0.0505371
803,-1.09667e-33,0.1789,0.130364,10.2693,1.93641,1.82653,2.92505,3.98682,-0.0480957
804,-1.09743e-33,0.183221,0.127895,10.2394,1.77978,1.94935,6.18018,3.98462,-0.0466309
805,-1.0982e-33,0.18623,0.106171,10.2388,1.87786,2.06164,-7.99072,3.9895,-0.0517578
806,-1.09896e-33,0.194656,0.105772,10.2866,1.73211,2.1037,3.44556,3.9895,-0.0476074
807,-1.09973e-33,0.184703,0.128562,10.2956,1.65601,2.19309,-6.20483,3.98804,-0.0507812
808,-1.1005e-33,0.207848,0.13909,10.2671,1.71065,2.04089,3.13379,3.98755,-0.0505371
809,-1.10126e-33,0.183946,0.126671,10.2851,1.68081,2.02875,-0.0112305,3.98535,-0.0510254
810,-1.10203e-33,0.19636,0.128074,10.2774,1.69302,2.10188,-0.327637,3.98657,-0.0505371
811,-1.10279e-33,0.190135,0.12731,10.2871,1.76111,2.18471,1.13916,3.98804,-0.0456543
812,-1.10356e-33,0.186538,0.117234,10.2592,1.7014,1.97611,-0.326904,3.98608,-0.0507812
813,-1.10432e-33,0.191282,0.108923,10.3022,1.74909,2.13794,5.44287,3.98657,-0.0441895
814,-1.10509e-33,0.197362,0.0985892,10.2746,1.74656,2.01054,4.65332,3.98877,-0.048584
815,-1.10585e-33,0.200388,0.125753,10.2605,1.71974,2.03372,-3.10791,3.98633,-0.0480957
816,-1.10662e-33,0.195766,0.107779,10.2612,1.83859,2.10864,2.92358,3.98779,-0.0449219
817,-1.10738e-33,0.207374,0.138123,10.2735,1.82499,2.16868,7.2793,3.98633,-0.0517578
818,-1.10815e-33,0.170725,0.130573,10.2913,1.85201,2.12188,7.64014,3.99097,-0.0446777
819,-1.10891e-33,0.200605,0.121075,10.275,1.69559,1.99584,3.03076,3.98584,-0.0498047
820,-1.10968e-33,0.178742,0.120807,10.279,1.68242,2.09186,-6.20093,3.98511,-0.0466309
821,-1.11044e-33,0.184881,0.131799,10.2443,1.79766,2.08436,-1.85205,3.98901,-0.0510254
822,-1.11121e-33,0.197279,0.125312,10.2734,1.93111,1.92122,-4.94263,3.9856,-0.0498047
823,-1.11197e-33,0.188378,0.133295,10.2843,1.85826,2.17332,5.65576,3.98413,-0.0471191
824,-1.11274e-33,0.190783,0.128208,10.2798,1.70109,2.03257,3.86963,3.98584,-0.052002
825,-1.1135e-33,0.197903,0.11185,10.2733,1.62031,2.08638,3.18823,3.98608,-0.0441895
826,-1.11427e-33,0.172946,0.120194,10.259,1.70422,2.07775,7.27734,3.98779,-0.052002
827,-1.11504e-33,0.183788,0.136955,10.2801,1.7369,2.1622,6.33325,3.98755,-0.0490723
828,-1.1158e-33,0.192846,0.120318,10.2935,1.73682,2.07014,-0.486328,3.9873,-0.0476074
829,-1.11657e-33,0.192387,0.125024,10.2781,1.61093,2.05987,-0.903809,3.9856,-0.0488281
830,-1.11733e-33,0.206556,0.115663,10.3064,1.85588,2.14196,-2.94849,3.98486,-0.0427246
831,-1.1181e-33,0.18504,0.136348,10.259,1.83149,2.02094,-3.16016,3.98633,-0.0488281
832,-1.11886e-33,0.199693,0.130191,10.2731,1.89883,2.07434,-3.68066,3.9834,-0.0466309
833,-1.11963e-33,0.196829,0.135342,10.2668,1.6431,2.10521,4.39185,3.98804,-0.0505371
834,-1.12039e-33,0.215725,0.125579,10.2498,1.65145,2.27362,-2.6394,3.9895,-0.0507812
835,-1.12116e-33,0.191259,0.117774,10.2706,1.70043,2.1507,5.02197,3.98779,-0.0476074
836,-1.12192e-33,0.185862,0.117887,10.2359,1.65878,2.09063,6.43799,3.98755,-0.052002
837,-1.12269e-33,0.197693,0.115992,10.2696,1.84405,1.98423,-3.10791,3.98657,-0.048584
838,-1.12345e-33,0.204172,0.123203,10.2456,1.70622,2.12045,7.96021,3.9873,-0.0500488
839,-1.12422e-33,0.200176,0.118163,10.2647,1.79891,2.17321,-6.62256,3.98633,-0.048584
840,-1.12498e-33,0.175342,0.144648,10.2536,1.86646,2.06218,5.23169,3.98804,-0.0476074
841,-1.12575e-33,0.194862,0.13918,10.2573,1.76769,1.96477,0.196777,3.98706,-0.0532227
842,-1.12651e-33,0.189092,0.119303,10.2467,1.69541,1.99094,-2.79224,3.9856,-0.0490723
843,-1.12728e-33,0.194181,0.140669,10.2846,1.78874,2.09481,-0.433594,3.9873,-0.0488281
844,-1.12804e-33,0.188056,0.126909,10.3054,1.64159,2.17216,-1.90356,3.98804,-0.0476074
845,-1.12881e-33,0.189328,0.14326,10.2643,1.70942,2.1424,5.91479,3.98682,-0.0539551
846,-1.12958e-33,0.182877,0.125732,10.2841,1.85176,1.96479,-1.42627,3.98438,-0.0517578
847,-1.13034e-33,0.192511,0.14338,10.2291,1.79259,2.04794,-3.10986,3.98779,-0.045166
848,-1.13111e-33,0.199558,0.119471,10.2518,1.70888,1.98431,-3.78955,3.98633,-0.0512695
849,-1.13187e-33,0.166529,0.119815,10.2547,1.82089,2.18315,-1.79712,3.98706,-0.0471191
850,-1.13264e-33,0.171493,0.126621,10.2557,1.81684,2.04291,5.07397,3.98804,-0.0515137
851,-1.1334e-33,0.194547,0.116062,10.2577,1.79661,1.95908,-6.20361,3.98682,-0.0490723
852,-1.13417e-33,0.187687,0.135004,10.2681,1.84958,2.06125,0.825195,3.98755,-0.043457
853,-1.13493e-33,0.193532,0.128121,10.298,1.67768,2.03026,-5.67578,3.98462,-0.0527344
854,-1.1357e-33,0.204738,0.141906,10.2559,1.68731,2.03618,0.928711,3.98901,-0.0476074
855,-1.13646e-33,0.17365,0.134857,10.2806,1.85076,1.98892,-5.72998,3.98584,-0.0507812
856,-1.13723e-33,0.192098,0.137433,10.2665,1.82317,2.07616,-2.89502,3.98413,-0.048584
857,-1.13799e-33,0.1928,0.119012,10.2611,1.77696,1.93346,6.48706,3.99023,-0.048584
858,-1.13876e-33,0.204586,0.126353,10.2732,1.79069,2.02002,3.44971,3.98633,-0.0498047
859,-1.13952e-33,0.197835,0.137502,10.2643,1.59533,2.13131,-6.04517,3.98608,-0.0480957
860,-1.14029e-33,0.196661,0.127078,10.2701,1.67932,2.22534,0.878662,3.98682,-0.0522461
861,-1.14105e-33,0.176529,0.114579,10.2523,1.57868,2.19591,6.8584,3.9873,-0.0446777
862,-1.14182e-33,0.183022,0.131722,10.2412,1.69338,2.03569,-3.89453,3.98633,-0.0505371
863,-1.14258e-33,0.185967,0.129919,10.2846,1.78739,2.21279,6.28589,3.98389,-0.048584
864,-1.14335e-33,0.197481,0.138825,10.2847,1.92547,1.98446,1.24365,3.98853,-0.0441895
865,-1.14412e-33,0.196102,0.150846,10.2847,1.80957,1.96753,-3.16162,3.9873,-0.0480957
866,-1.14488e-33,0.207989,0.128302,10.2716,1.76677,1.8934,5.0249,3.98511,-0.0466309
867,-1.14565e-33,0.196794,0.152207,10.2931,1.55719,2.1391,-4.00171,3.98828,-0.0524902
868,-1.14641e-33,0.18434,0.120312,10.2647,1.62561,2.2122,-7.72607,3.98779,-0.0446777
869,-1.14718e-33,0.17489,0.108949,10.2842,1.77151,2.26148,7.17407,3.98657,-0.0500488
870,-1.14794e-33,0.182065,0.117279,10.2387,1.74123,2.08971,1.24536,3.9873,-0.0507812
871,-1.14871e-33,0.171679,0.13034,10.2634,1.76779,2.11079,5.86108,3.98779,-0.0441895
872,-1.14947e-33,0.192842,0.117674,10.2637,1.74517,2.07232,-7.04272,3.98706,-0.0495605
873,-1.15024e-33,0.193944,0.140609,10.275,1.7127,2.14168,4.49707,3.98779,-0.0461426
874,-1.151e-33,0.178178,0.106819,10.2697,1.85183,2.0652,2.50537,3.98633,-0.0495605
875,-1.15177e-33,0.200593,0.108183,10.255,1.86605,2.0391,1.1394,3.98828,-0.0466309
876,-1.15253e-33,0.188007,0.12656,10.2641,1.76933,1.91584,1.13574,3.99072,-0.0439453
877,-1.1533e-33,0.190201,0.128874,10.2597,1.71216,2.10155,0.564697,3.98633,-0.0471191
878,-1.15406e-33,0.190543,0.135093,10.2635,1.7514,2.23395,-2.42603,3.98682,-0.048584
879,-1.15483e-33,0.185419,0.138578,10.2375,1.63101,2.14094,6.90991,3.98779,-0.0512695
880,-1.15559e-33,0.190275,0.128877,10.2816,1.68677,1.99794,-4.58154,3.98999,-0.0466309
881,-1.15636e-33,0.188289,0.115252,10.2881,1.79118,2.00652,-3.84253,3.98657,-0.045166
882,-1.15712e-33,0.183936,0.1124,10.2697,1.63175,2.10951,-2.37378,3.98682,-0.0512695
883,-1.15789e-33,0.18651,0.123794,10.263,1.83429,1.93152,4.44629,3.98657,-0.0466309
884,-1.15866e-33,0.186211,0.108973,10.2566,1.6909,2.18169,-7.25122,3.98584,-0.0527344
885,-1.15942e-33,0.18863,0.124776,10.2526,1.78334,2.0183,4.44507,3.9873,-0.0505371
886,-1.16019e-33,0.187326,0.125063,10.2712,1.76308,1.96287,-0.378174,3.98511,-0.0490723
887,-1.16095e-33,0.202041,0.138284,10.2319,1.71554,2.11479,6.54614,3.9856,-0.0490723
888,-1.16172e-33,0.174433,0.119679,10.2879,1.75168,2.20367,4.91724,3.98755,-0.0446777
889,-1.16248e-33,0.191765,0.132384,10.2963,1.63565,2.15218,0.824219,3.98804,-0.0537109
890,-1.16325e-33,0.179339,0.125446,10.2574,1.87483,2.03551,-3.89551,3.98706,-0.0466309
891,-1.16401e-33,0.191889,0.110276,10.2915,1.8788,2.00229,4.18213,3.98779,-0.0510254
892,-1.16478e-33,0.186389,0.107468,10.2709,1.8795,2.0745,7.802,3.98779,-0.0446777
893,-1.16554e-33,0.191428,0.114108,10.2525,1.75624,1.99727,-4.78394,3.98462,-0.0490723
894,-1.16631e-33,0.206909,0.121674,10.2715,1.69062,2.18274,-5.51929,3.98535,-0.0505371
895,-1.16707e-33,0.18676,0.142429,10.2935,1.6607,2.10521,-3.11108,3.98877,-0.0461426
896,-1.16784e-33,0.200646,0.128127,10.279,1.73098,2.09086,3.02539,3.98975,-0.0507812
897,-1.1686e-33,0.184577,0.129447,10.276,1.77117,2.10383,-1.32397,3.98608,-0.0461426
898,-1.16937e-33,0.195447,0.124962,10.2581,1.9028,2.10021,-1.90137,3.98657,-0.052002
899,-1.17013e-33,0.178065,0.119942,10.2683,1.87117,2.04471,-2.05762,3.9856,-0.0490723
900,-1.1709e-33,0.192617,0.0951433,10.2959,1.71836,2.00009,5.7561,3.98779,-0.0463867
901,-1.17166e-33,0.181188,0.112278,10.2625,1.83895,1.86075,4.76367,3.98486,-0.0471191
902,-1.17243e-33,0.178875,0.123899,10.2602,1.81602,1.94566,-3.58081,3.98706,-0.0432129
903,-1.1732e-33,0.193541,0.138954,10.2672,1.68324,2.05585,4.39307,3.9873,-0.0490723
904,-1.17396e-33,0.190219,0.126201,10.24,1.7097,2.1465,-7.61768,3.98535,-0.0480957
905,-1.17473e-33,0.171405,0.128289,10.2654,1.72707,2.05139,-5.78296,3.98633,-0.0476074
906,-1.17549e-33,0.189208,0.118844,10.2604,1.85252,2.11684,3.97314,3.9873,-0.0507812
907,-1.17626e-33,0.199054,0.141541,10.2427,1.7774,2.1736,-2.53003,3.98584,-0.0446777
908,-1.17702e-33,0.188916,0.125071,10.2539,1.81654,2.24081,7.54077,3.98706,-0.0505371
909,-1.17779e-33,0.181278,0.131612,10.2577,1.79625,2.05744,-5.10303,3.98755,-0.0471191
910,-1.17855e-33,0.195359,0.123224,10.271,1.74056,1.92911,1.0376,3.98584,-0.0471191
911,-1.17932e-33,0.191287,0.139998,10.2648,1.744,2.15162,5.59668,3.98926,-0.0466309
912,-1.18008e-33,0.190762,0.124255,10.2451,1.61034,2.12488,-3.31958,3.98804,-0.0446777
913,-1.18085e-33,0.166591,0.13035,10.2837,1.64897,2.09658,1.08765,3.98755,-0.0527344
914,-1.18161e-33,0.190915,0.133747,10.2652,1.75834,1.92983,-6.83252,3.98633,-0.0490723
915,-1.18238e-33,0.188975,0.121491,10.2597,1.77891,1.93849,-7.46167,3.98608,-0.0532227
916,-1.18314e-33,0.19302,0.12338,10.2559,1.74082,2.03249,5.70508,3.98682,-0.0476074
917,-1.18391e-33,0.190227,0.134513,10.2418,1.83657,2.05062,0.405762,3.9873,-0.0534668
918,-1.18467e-33,0.193245,0.137078,10.2846,1.88359,1.9776,4.2395,3.98438,-0.050293
919,-1.18544e-33,0.193512,0.134238,10.2713,1.84779,2.0005,-2.06128,3.98828,-0.0480957
920,-1.18621e-33,0.195245,0.134854,10.2673,1.72084,2.02765,1.71704,3.98755,-0.0510254
921,-1.18697e-33,0.181284,0.135592,10.2825,1.68421,2.06884,-0.487549,3.98828,-0.0456543
922,-1.18774e-33,0.174924,0.122194,10.2587,1.67328,2.25605,-0.536133,3.9856,-0.0505371
923,-1.1885e-33,0.177287,0.132672,10.2207,1.73667,2.07493,-4.8916,3.98657,-0.0495605
924,-1.18927e-33,0.191973,0.120861,10.2922,1.81613,1.9725,-4.57666,3.98657,-0.0471191
925,-1.19003e-33,0.186229,0.111556,10.2693,1.76848,2.09512,-1.32617,3.98779,-0.0493164
926,-1.1908e-33,0.187598,0.111859,10.2907,1.79456,2.02657,7.06958,3.98608,-0.0446777
927,-1.19156e-33,0.183223,0.123062,10.2939,1.64933,2.15195,2.71387,3.98755,-0.0517578
928,-1.19233e-33,0.202467,0.114419,10.2598,1.68534,2.20843,-6.10034,3.98828,-0.0490723
929,-1.19309e-33,0.196242,0.104017,10.2862,1.75903,2.16225,3.97241,3.98804,-0.0505371
930,-1.19386e-33,0.159842,0.129554,10.2631,1.87056,2.1257,-7.98755,3.9873,-0.0527344
931,-1.19462e-33,0.17744,0.134814,10.2542,1.67197,1.92022,-0.222168,3.98608,-0.0466309
932,-1.19539e-33,0.190627,0.14405,10.233,1.86397,2.0371,-1.17017,3.98877,-0.0500488
933,-1.19615e-33,0.187909,0.134015,10.2917,1.75235,2.15861,-4.63062,3.98755,-0.045166
934,-1.19692e-33,0.189902,0.13706,10.2635,1.79863,2.04512,-3.89526,3.98682,-0.0505371
935,-1.19768e-33,0.199353,0.123962,10.2948,1.8693,1.96,-3.79175,3.98804,-0.0471191
936,-1.19845e-33,0.181862,0.118139,10.256,1.79948,2.11889,6.22412,3.99072,-0.0466309
937,-1.19921e-33,0.186641,0.119037,10.2666,1.69443,2.1113,3.23877,3.98755,-0.0493164
938,-1.19998e-33,0.173419,0.1158,10.2459,1.68326,2.16768,5.33789,3.98657,-0.0441895
939,-1.20075e-33,0.189788,0.119175,10.2646,1.71761,2.17278,3.92261,3.98584,-0.048584
940,-1.20151e-33,0.184847,0.103749,10.2595,1.71595,1.99112,-3.21313,3.98682,-0.0432129
941,-1.20228e-33,0.196739,0.0914828,10.2716,1.75294,2.01046,3.02832,3.98779,-0.0476074
942,-1.20304e-33,0.198022,0.11471,10.2827,1.81088,2.00839,-2.42407,3.98486,-0.0527344
943,-1.20381e-33,0.18975,0.120078,10.2706,1.94322,1.99732,-7.09399,3.98584,-0.045166
944,-1.20457e-33,0.192954,0.11416,10.2827,1.83352,2.04622,-1.1167,3.98779,-0.0534668
945,-1.20534e-33,0.180732,0.137342,10.2685,1.74615,2.16714,-3.94556,3.98535,-0.045166
946,-1.2061e-33,0.216297,0.134524,10.2726,1.73877,2.17091,-5.36523,3.98779,-0.0466309
947,-1.20687e-33,0.189911,0.117912,10.2542,1.70791,2.09238,1.66675,3.98584,-0.0500488
948,-1.20763e-33,0.191633,0.129516,10.2569,1.76774,2.00703,-3.52539,3.98486,-0.045166
949,-1.2084e-33,0.188184,0.129756,10.2633,1.82314,1.97691,1.87378,3.98828,-0.0478516
950,-1.20916e-33,0.19205,0.142887,10.2484,1.73424,1.94179,2.50488,3.98706,-0.0480957
951,-1.20993e-33,0.191462,0.115577,10.2478,1.70079,2.08894,7.80469,3.98584,-0.0500488
952,-1.21069e-33,0.19685,0.118105,10.258,1.77986,2.05997,7.96191,3.98584,-0.048584
953,-1.21146e-33,0.18695,0.139832,10.2486,1.85801,2.04845,-2.58691,3.98926,-0.0505371
954,-1.21222e-33,0.179203,0.117888,10.2722,1.77476,2.17219,7.12134,3.98682,-0.0537109
955,-1.21299e-33,0.18447,0.127758,10.2626,1.70901,2.1113,-1.22217,3.98853,-0.0466309
956,-1.21375e-33,0.204371,0.13578,10.2792,1.82709,1.8973,-0.16626,3.98364,-0.0532227
957,-1.21452e-33,0.199757,0.124175,10.3183,1.77361,1.89471,-6.41479,3.98828,-0.0456543
958,-1.21529e-33,0.174608,0.111059,10.2636,1.7544,1.9454,-4.83862,3.98608,-0.0510254
959,-1.21605e-33,0.203718,0.134959,10.3036,1.6036,2.19755,2.77148,3.98364,-0.0471191
960,-1.21682e-33,0.177311,0.115379,10.2544,1.75332,2.07865,1.40234,3.98755,-0.0466309
961,-1.21758e-33,0.186178,0.104492,10.234,1.77942,2.1466,0.671387,3.98511,-0.0495605
962,-1.21835e-33,0.184308,0.114027,10.2757,1.73644,1.99778,1.61182,3.98779,-0.048584
963,-1.21911e-33,0.186621,0.13622,10.2656,1.81679,1.98618,3.71094,3.98755,-0.0476074
964,-1.21988e-33,0.194356,0.12077,10.2935,1.63109,1.98805,-4.52637,3.98804,-0.045166
965,-1.22064e-33,0.195176,0.123615,10.2648,1.77778,2.10503,0.354736,3.98633,-0.0495605
966,-1.22141e-33,0.199192,0.128235,10.2564,1.72806,2.09084,5.38892,3.98755,-0.050293
967,-1.22217e-33,0.189564,0.133276,10.2598,1.74979,2.11989,-4.7334,3.98608,-0.0461426
968,-1.22294e-33,0.194271,0.129067,10.2738,1.80053,2.12626,3.97168,3.98877,-0.0515137
969,-1.2237e-33,0.193502,0.122685,10.2791,1.93177,2.04919,4.91919,3.98584,-0.0441895
970,-1.22447e-33,0.17369,0.123994,10.3046,1.73608,2.00009,-6.46338,3.98511,-0.0505371
971,-1.22523e-33,0.183913,0.124214,10.2577,1.66505,2.02253,-6.67114,3.98364,-0.0480957
972,-1.226e-33,0.196284,0.105869,10.3056,1.71124,2.1601,-5.73022,3.98608,-0.045166
973,-1.22676e-33,0.18202,0.135796,10.2845,1.79684,2.19714,-3.32007,3.98804,-0.0495605
974,-1.22753e-33,0.200659,0.114499,10.2463,1.89835,2.05705,-5.78394,3.98706,-0.0480957
975,-1.22829e-33,0.196971,0.120234,10.3026,1.83608,2.04012,6.12329,3.98779,-0.0510254
976,-1.22906e-33,0.192919,0.143299,10.2884,1.83549,2.05577,0.141602,3.98877,-0.0476074
977,-1.22983e-33,0.19142,0.125168,10.2832,1.85211,1.91039,-1.27002,3.98511,-0.0490723
978,-1.23059e-33,0.199164,0.131311,10.2772,1.8222,2.05262,-3.05737,3.98779,-0.052002
979,-1.23136e-33,0.190743,0.1099,10.2849,1.76426,2.17029,5.49463,3.98706,-0.0505371
980,-1.23212e-33,0.193516,0.123893,10.2912,1.68181,2.10918,3.23926,3.98706,-0.0515137
981,-1.23289e-33,0.193509,0.135727,10.2932,1.71454,2.05918,-6.78003,3.98633,-0.0456543
982,-1.23365e-33,0.187099,0.131408,10.2587,1.7141,2.07245,-4.68579,3.9895,-0.0490723
983,-1.23442e-33,0.170924,0.123411,10.2563,1.72143,2.04356,0.722412,3.98608,-0.0471191
984,-1.23518e-33,0.189244,0.141112,10.2894,1.73045,2.01551,3.60474,3.98804,-0.0444336
985,-1.23595e-33,0.178532,0.125188,10.2492,1.69848,1.89599,5.96509,3.98828,-0.0527344
986,-1.23671e-33,0.188856,0.134571,10.2608,1.79335,1.87171,7.02075,3.9834,-0.0441895
987,-1.23748e-33,0.208111,0.129264,10.2614,1.90076,1.97004,-3.1106,3.98853,-0.0490723
988,-1.23824e-33,0.175704,0.134557,10.2801,1.93636,2.14342,-0.43335,3.98706,-0.0456543
989,-1.23901e-33,0.194033,0.126206,10.2737,1.85091,2.09025,-2.00342,3.98438,-0.0524902
990,-1.23977e-33,0.20427,0.127858,10.2858,1.65842,2.05237,-5.3103,3.98608,-0.0483398
991,-1.24054e-33,0.196305,0.124443,10.2624,1.71436,2.07637,2.71387,3.98706,-0.0461426
992,-1.2413e-33,0.187834,0.111914,10.2753,1.73032,2.09135,-4.63184,3.98853,-0.0524902
993,-1.24207e-33,0.192831,0.108003,10.2479,1.7912,2.12199,0.723145,3.9856,-0.0446777
994,-1.24283e-33,0.194943,0.111653,10.2848,1.744,2.12122,-4.6272,3.98511,-0.0515137
995,-1.2436e-33,0.193519,0.0982535,10.2763,1.77717,2.07775,-4.41748,3.98486,-0.0500488
996,-1.24437e-33,0.189917,0.125298,10.2806,1.78949,2.1057,1.50952,3.9856,-0.046875
997,-1.24513e-33,0.178036,0.122351,10.2799,1.67637,2.07242,1.14014,3.9873,-0.0507812
998,-1.2459e-33,0.188523,0.12297,10.2625,1.71221,2.03789,4.70654,3.98804,-0.048584
999,-1.24666e-33,0.190404,0.126775,10.2833,1.68124,2.20336,6.0708,3.98804,-0.0490723
1000,-1.24743e-33,0.187914,0.127134,10.2743,1.77194,2.02002,6.75244,3.98779,-0.0446777
1001,-1.24819e-33,0.18757,0.120994,10.2559,1.77776,1.92299,-7.62134,3.98804,-0.0480957
1002,-1.24896e-33,0.202456,0.137413,10.2528,1.88454,1.96546,-0.171875,3.98779,-0.0505371
1003,-1.24972e-33,0.1962,0.133406,10.2698,1.88664,1.88103,0.61792,3.9856,-0.048584
1004,-1.25049e-33,0.203076,0.112812,10.2738,1.83997,2.07655,-0.0629883,3.98486,-0.0507812
1005,-1.25125e-33,0.190503,0.11749,10.2626,1.71628,2.04601,-5.52319,3.98779,-0.0480957
1006,-1.25202e-33,0.20411,0.135451,10.2745,1.57722,2.12555,-6.51953,3.98755,-0.0500488
1007,-1.25278e-33,0.185135,0.110225,10.2705,1.80014,2.1415,5.38696,3.98926,-0.0495605
1008,-1.25355e-33,0.202516,0.138451,10.2885,1.77343,2.16517,-2.63452,3.9856,-0.0480957
1009,-1.25431e-33,0.173568,0.120348,10.2597,1.71761,2.03664,2.40015,3.98682,-0.0498047
1010,-1.25508e-33,0.183902,0.134649,10.2341,1.72143,2.05431,-0.800537,3.9873,-0.0480957
1011,-1.25584e-33,0.191423,0.127462,10.2719,1.83841,1.8713,-2.16504,3.98755,-0.0505371
1012,-1.25661e-33,0.186874,0.110212,10.2936,1.76984,1.92463,-2.95142,3.98706,-0.048584
1013,-1.25737e-33,0.194486,0.123987,10.2533,1.83365,2.00695,1.82349,3.98657,-0.0461426
1014,-1.25814e-33,0.206494,0.120847,10.2297,1.83938,2.14704,-0.217041,3.98218,-0.0498047
1015,-1.25891e-33,0.195656,0.135733,10.2813,1.85165,1.93531,0.457275,3.98804,-0.0446777
1016,-1.25967e-33,0.186059,0.114812,10.2809,1.75401,2.088,-4.67847,3.98413,-0.0544434
1017,-1.26044e-33,0.194638,0.126463,10.2755,1.72868,2.04673,0.198975,3.98535,-0.0515137
1018,-1.2612e-33,0.194949,0.120789,10.2611,1.56408,1.95219,4.18335,3.9873,-0.0500488
1019,-1.26197e-33,0.195228,0.130779,10.2735,1.59902,2.12193,-4.99854,3.98804,-0.0476074
1020,-1.26273e-33,0.19278,0.122574,10.2711,1.61211,2.20393,-4.05273,3.98706,-0.0456543
1021,-1.2635e-33,0.189582,0.129594,10.2737,1.74953,2.08469,1.72021,3.98486,-0.0507812
1022,-1.26426e-33,0.179087,0.103615,10.2506,1.92788,2.1152,3.29199,3.98633,-0.0429688
1023,-1.26503e-33,0.191455,0.125607,10.285,1.84866,1.97604,-5.52466,3.98926,-0.0515137
1024,-1.26579e-33,0.180125,0.123227,10.2443,1.8642,2.05424,-5.52173,3.98706,-0.0466309
1025,-1.26656e-33,0.201046,0.126811,10.261,1.82645,2.08969,7.95752,3.98877,-0.048584
1026,-1.26732e-33,0.205505,0.114373,10.2641,1.6578,1.9796,6.70288,3.98584,-0.050293
1027,-1.26809e-33,0.169519,0.113729,10.2774,1.71075,2.11069,7.07153,3.98486,-0.0456543
1028,-1.26885e-33,0.180855,0.128336,10.2718,1.74141,2.09624,-7.20117,3.98779,-0.0510254
1029,-1.26962e-33,0.178039,0.124698,10.2619,1.84197,2.0737,-5.20459,3.98535,-0.0461426
1030,-1.27038e-33,0.171478,0.139493,10.251,1.80821,2.09304,0.0893555,3.98901,-0.052002
1031,-1.27115e-33,0.188292,0.122514,10.2671,1.70199,2.08067,-7.72803,3.98926,-0.048584
1032,-1.27191e-33,0.181382,0.133058,10.2714,1.78541,2.03871,-2.74268,3.98804,-0.0461426
1033,-1.27268e-33,0.180948,0.132011,10.2674,1.69958,2.05465,7.69946,3.98584,-0.0478516
1034,-1.27345e-33,0.191954,0.11997,10.2642,1.70593,1.95111,-0.958252,3.9873,-0.0466309
1035,-1.27421e-33,0.186137,0.125038,10.2466,1.80201,2.01584,1.76782,3.98877,-0.048584
1036,-1.27498e-33,0.205068,0.131384,10.2978,1.7984,2.00393,6.021,3.98584,-0.0480957
1037,-1.27574e-33,0.179488,0.132571,10.2717,1.79543,1.95424,3.92261,3.9856,-0.0480957
1038,-1.27651e-33,0.190273,0.126911,10.2623,1.7962,2.12232,-3.79565,3.99072,-0.0483398
1039,-1.27727e-33,0.201927,0.121383,10.2714,1.67919,2.21066,-0.0153809,3.98828,-0.0441895
1040,-1.27804e-33,0.182568,0.112207,10.2764,1.81408,2.19153,4.13086,3.98706,-0.0532227
1041,-1.2788e-33,0.197532,0.137345,10.2446,1.84584,2.07252,-4.00269,3.98877,-0.0456543
1042,-1.27957e-33,0.196008,0.124507,10.2641,1.72284,2.17775,-1.90234,3.9873,-0.0495605
1043,-1.28033e-33,0.192468,0.0949695,10.2684,1.70058,2.05605,4.39478,3.9856,-0.0500488
1044,-1.2811e-33,0.185696,0.12517,10.2403,1.80678,2.09514,1.08423,3.99023,-0.0439453
1045,-1.28186e-33,0.192007,0.132678,10.2556,1.95508,2.05147,0.299561,3.98828,-0.0498047
1046,-1.28263e-33,0.190639,0.1263,10.2511,1.98792,1.93925,1.92993,3.98511,-0.0480957
1047,-1.28339e-33,0.191224,0.126602,10.311,1.88662,1.94871,-7.83154,3.98853,-0.0495605
1048,-1.28416e-33,0.189087,0.131926,10.2824,1.54036,2.13443,-6.77759,3.98486,-0.0461426
1049,-1.28492e-33,0.174947,0.113912,10.2577,1.55222,2.15505,-4.31689,3.98828,-0.048584
1050,-1.28569e-33,0.186173,0.108753,10.2524,1.76392,2.29621,6.28003,3.98804,-0.050293
1051,-1.28645e-33,0.183766,0.122466,10.2832,1.82975,2.02603,4.65576,3.98682,-0.0476074
1052,-1.28722e-33,0.189635,0.1215,10.2951,1.9234,1.96115,0.615234,3.98779,-0.0527344
1053,-1.28799e-33,0.196111,0.135072,10.2864,1.87084,2.07217,-6.93799,3.98682,-0.0461426
1054,-1.28875e-33,0.188424,0.117858,10.2875,1.79999,2.07588,-6.67627,3.98755,-0.0515137
1055,-1.28952e-33,0.185611,0.155074,10.2684,1.67087,1.96372,4.3418,3.98608,-0.0441895
1056,-1.29028e-33,0.199274,0.130719,10.2841,1.78342,2.2559,-0.696045,3.98755,-0.0444336
1057,-1.29105e-33,0.18408,0.113423,10.251,1.84861,2.1185,0.143311,3.98755,-0.0505371
1058,-1.29181e-33,0.18842,0.116714,10.2631,1.72115,2.17857,-5.09937,3.98511,-0.0446777
1059,-1.29258e-33,0.199265,0.134113,10.2605,1.70744,2.0025,-2.63574,3.98608,-0.0495605
1060,-1.29334e-33,0.17664,0.124196,10.3068,1.79994,1.98702,-0.118652,3.98706,-0.048584
1061,-1.29411e-33,0.189532,0.116801,10.2527,1.7067,2.28338,-3.89233,3.98462,-0.0471191
1062,-1.29487e-33,0.191122,0.133742,10.2695,1.85703,2.08561,0.979736,3.98975,-0.0498047
1063,-1.29564e-33,0.166718,0.125791,10.3048,1.92898,2.20426,-0.800293,3.98706,-0.048584
1064,-1.2964e-33,0.163697,0.130182,10.2783,1.98979,2.05111,2.13794,3.98682,-0.0517578
1065,-1.29717e-33,0.179559,0.126413,10.2662,1.74523,1.99653,-3.63428,3.98755,-0.0471191
1066,-1.29793e-33,0.183016,0.114804,10.2568,1.64144,2.18185,-1.06152,3.98633,-0.0529785
1067,-1.2987e-33,0.195423,0.114438,10.2564,1.79738,2.16141,-2.58521,3.98804,-0.0476074
1068,-1.29946e-33,0.198537,0.125367,10.2656,1.92048,2.07552,3.92114,3.98682,-0.0427246
1069,-1.30023e-33,0.167364,0.128096,10.2552,1.68544,2.14875,2.1897,3.98706,-0.048584
1070,-1.30099e-33,0.189163,0.117198,10.2552,1.57594,1.96208,-0.169434,3.98584,-0.0466309
1071,-1.30176e-33,0.193193,0.121727,10.2486,1.57341,1.94092,4.76294,3.98535,-0.0507812
1072,-1.30253e-33,0.203375,0.112533,10.2824,1.93692,2.19225,5.12695,3.98755,-0.045166
1073,-1.30329e-33,0.170533,0.137259,10.2461,1.92002,2.04852,-4.52417,3.98657,-0.0495605
1074,-1.30406e-33,0.170219,0.139917,10.2651,1.74425,1.94863,1.66626,3.98657,-0.0517578
1075,-1.30482e-33,0.18298,0.134021,10.2666,1.74305,2.12626,-4.26514,3.98901,-0.0446777
1076,-1.30559e-33,0.194047,0.117764,10.2713,1.78711,1.99622,-4.68481,3.98877,-0.0546875
1077,-1.30635e-33,0.198547,0.130065,10.3045,1.75294,2.02637,-1.63989,3.9873,-0.0446777
1078,-1.30712e-33,0.195071,0.127349,10.2499,1.74515,2.0996,4.07886,3.98657,-0.0505371
1079,-1.30788e-33,0.198343,0.116758,10.2522,1.79835,2.06927,0.560791,3.98926,-0.0480957
1080,-1.30865e-33,0.188185,0.123035,10.2992,1.66254,2.14642,3.50122,3.98706,-0.045166
1081,-1.30941e-33,0.172966,0.114173,10.2612,1.64587,1.92522,-1.11304,3.98535,-0.0532227
1082,-1.31018e-33,0.187205,0.110984,10.2763,1.67865,2.0966,4.2356,3.9873,-0.0437012
1083,-1.31094e-33,0.180851,0.105172,10.2701,1.82384,1.9964,-1.90552,3.98926,-0.0500488
1084,-1.31171e-33,0.176135,0.140792,10.2826,1.71218,2.14978,-6.78223,3.98828,-0.0490723
1085,-1.31247e-33,0.185051,0.149927,10.2599,1.85521,2.06453,1.03516,3.98779,-0.0510254
1086,-1.31324e-33,0.197962,0.113371,10.2641,1.87765,2.04671,2.6106,3.98633,-0.0512695
1087,-1.314e-33,0.187389,0.11322,10.2507,1.78137,1.96128,5.70435,3.98706,-0.0471191
1088,-1.31477e-33,0.190832,0.134445,10.2866,1.80521,1.9777,1.2959,3.98877,-0.0544434
1089,-1.31553e-33,0.186105,0.113694,10.2779,1.67087,2.17073,2.97632,3.98755,-0.0456543
1090,-1.3163e-33,0.183712,0.110632,10.2882,1.66933,2.04686,-7.66968,3.98511,-0.0495605
1091,-1.31707e-33,0.18157,0.114572,10.2557,1.69746,2.17011,1.08545,3.98926,-0.0515137
1092,-1.31783e-33,0.181534,0.109625,10.2693,1.73918,2.12124,-2.8479,3.98804,-0.0476074
1093,-1.3186e-33,0.192054,0.134404,10.2882,1.90877,1.99176,-1.58716,3.98706,-0.0483398
1094,-1.31936e-33,0.175498,0.130526,10.252,1.85345,2.04704,-0.641846,3.98608,-0.0466309
1095,-1.32013e-33,0.197076,0.125178,10.2825,1.86336,2.07688,-1.38013,3.98877,-0.048584
1096,-1.32089e-33,0.196624,0.105087,10.2731,1.76042,2.00378,2.34595,3.98779,-0.0437012
1097,-1.32166e-33,0.19772,0.117627,10.2629,1.78249,2.14074,-7.67041,3.98535,-0.048584
1098,-1.32242e-33,0.203279,0.13805,10.2817,1.92619,2.01735,-6.72778,3.98682,-0.052002
1099,-1.32319e-33,0.166994,0.120881,10.2944,1.83395,1.97516,7.80225,3.98755,-0.0476074
1100,-1.32395e-33,0.200995,0.110943,10.2901,1.76802,1.97952,-5.83691,3.9873,-0.0507812
1101,-1.32472e-33,0.200406,0.112404,10.2731,1.70155,2.09045,-6.3103,3.98853,-0.0456543
1102,-1.32548e-33,0.193409,0.124673,10.2523,1.63908,2.25531,-2.84619,3.98682,-0.0505371
1103,-1.32625e-33,0.185492,0.12549,10.2636,1.83201,2.20244,-4.63086,3.98779,-0.0476074
1104,-1.32701e-33,0.181776,0.118262,10.2386,1.91064,2.17985,3.03027,3.98633,-0.0476074
1105,-1.32778e-33,0.193665,0.122974,10.273,1.92724,2.03339,5.33789,3.98657,-0.0463867
1106,-1.32854e-33,0.187494,0.113549,10.2278,1.80591,2.02926,6.54346,3.9873,-0.0466309
1107,-1.32931e-33,0.194946,0.121683,10.2555,1.72084,2.03853,-5.78491,3.98755,-0.0524902
1108,-1.33007e-33,0.176225,0.120468,10.2681,1.78728,2.03034,-0.591064,3.98755,-0.0495605
1109,-1.33084e-33,0.211569,0.124985,10.2532,1.78424,2.09599,-5.36621,3.98853,-0.0505371
1110,-1.33161e-33,0.202681,0.125456,10.2926,1.76718,1.99002,2.13281,3.99048,-0.0527344
1111,-1.33237e-33,0.17619,0.114082,10.278,1.73027,2.04417,-3.16016,3.98633,-0.0505371
1112,-1.33314e-33,0.189709,0.131579,10.28,1.6493,2.01149,-3.94971,3.98828,-0.050293
1113,-1.3339e-33,0.194753,0.126365,10.2913,1.72099,2.07432,-6.46777,3.98853,-0.0456543
1114,-1.33467e-33,0.206164,0.103869,10.2966,1.72517,2.10365,1.24536,3.98706,-0.0524902
1115,-1.33543e-33,0.190275,0.115898,10.2629,1.79909,2.15283,-5.25806,3.98608,-0.0488281
1116,-1.3362e-33,0.183959,0.12758,10.2709,1.73839,1.87422,2.7644,3.98901,-0.0446777
1117,-1.33696e-33,0.183739,0.139478,10.2644,1.69203,1.96771,7.96021,3.9873,-0.0512695
1118,-1.33773e-33,0.207184,0.1326,10.2842,1.82133,2.05096,5.44434,3.9856,-0.0471191
1119,-1.33849e-33,0.195604,0.132008,10.2685,1.79407,2.1102,-2.74219,3.98755,-0.0517578
1120,-1.33926e-33,0.185473,0.129464,10.2782,1.73718,2.02012,-3.21484,3.98804,-0.0500488
1121,-1.34002e-33,0.182721,0.139691,10.2615,1.74313,1.90959,-5.30981,3.9856,-0.0495605
1122,-1.34079e-33,0.188088,0.139914,10.2548,1.74097,1.91961,4.02661,3.98633,-0.0522461
1123,-1.34155e-33,0.185749,0.137221,10.2507,1.75217,2.04709,-6.04688,3.9873,-0.0432129
1124,-1.34232e-33,0.182958,0.129399,10.2646,1.77847,2.04499,5.59985,3.98657,-0.0546875
1125,-1.34308e-33,0.199342,0.115359,10.2625,1.84622,2.01996,4.44141,3.98999,-0.0480957
1126,-1.34385e-33,0.199619,0.135098,10.2636,1.79441,2.02931,0.194824,3.98804,-0.0534668
1127,-1.34461e-33,0.194584,0.124617,10.2717,1.87337,2.03938,-6.51978,3.98828,-0.0495605
1128,-1.34538e-33,0.179203,0.117025,10.2309,1.70401,2.05534,-1.68896,3.98462,-0.0476074
1129,-1.34615e-33,0.184104,0.120967,10.2471,1.63047,2.09542,-2.63525,3.98633,-0.0510254
1130,-1.34691e-33,0.193095,0.144151,10.2741,1.76856,2.07708,5.23242,3.98682,-0.0441895
1131,-1.34768e-33,0.200135,0.131865,10.2908,1.69997,2.01643,-0.590332,3.98657,-0.0515137
1132,-1.34844e-33,0.176454,0.097387,10.2668,1.82599,2.10424,4.4436,3.98877,-0.0466309
1133,-1.34921e-33,0.193809,0.112799,10.273,1.7368,2.02816,5.75562,3.98804,-0.0500488
1134,-1.34997e-33,0.191335,0.117069,10.2726,1.78265,2.07025,2.13892,3.98608,-0.050293
1135,-1.35074e-33,0.170963,0.111991,10.2515,1.80632,2.06863,6.74976,3.99023,-0.0495605
1136,-1.3515e-33,0.189598,0.121259,10.2663,1.82855,2.11533,-5.41675,3.98706,-0.0539551
1137,-1.35227e-33,0.171228,0.107565,10.2449,1.76976,2.16115,6.33325,3.98755,-0.0466309
1138,-1.35303e-33,0.187831,0.125159,10.2744,1.89361,2.08613,3.02734,3.98853,-0.0480957
1139,-1.3538e-33,0.172679,0.124881,10.2473,1.67402,2.08203,-0.852539,3.98657,-0.0510254
1140,-1.35456e-33,0.179225,0.118134,10.2781,1.60921,2.11971,1.35303,3.98535,-0.0441895
1141,-1.35533e-33,0.185261,0.122688,10.2518,1.60191,2.03231,-1.48413,3.98828,-0.0527344
1142,-1.35609e-33,0.187918,0.117118,10.2586,1.77804,1.98508,6.01929,3.98706,-0.0456543
1143,-1.35686e-33,0.183616,0.116222,10.2899,1.79218,2.10262,5.07544,3.98682,-0.046875
1144,-1.35762e-33,0.176615,0.117911,10.289,1.74154,2.05009,0.929443,3.98828,-0.0461426
1145,-1.35839e-33,0.183033,0.110181,10.245,1.7441,1.91364,0.407715,3.98608,-0.0461426
1146,-1.35915e-33,0.20204,0.124313,10.2723,1.7951,2.14181,2.87329,3.98584,-0.0546875
1147,-1.35992e-33,0.171767,0.124951,10.2683,1.7556,2.06955,4.91821,3.98657,-0.0495605
1148,-1.36069e-33,0.213495,0.123188,10.2702,1.88224,2.14086,-7.88184,3.98657,-0.0527344
1149,-1.36145e-33,0.18915,0.128865,10.2542,1.7909,2.01771,-1.26929,3.98438,-0.0490723
1150,-1.36222e-33,0.205653,0.112673,10.2755,1.861,2.02329,3.13403,3.9873,-0.0510254
1151,-1.36298e-33,0.205895,0.123244,10.2718,1.69968,1.95416,0.143066,3.98779,-0.0476074
1152,-1.36375e-33,0.206656,0.122626,10.2415,1.76367,2.08449,2.03149,3.98804,-0.0500488
1153,-1.36451e-33,0.167699,0.0995251,10.2656,1.75629,2.24947,3.28979,3.98853,-0.0507812
1154,-1.36528e-33,0.172946,0.112561,10.3095,1.66518,2.13395,3.18555,3.98804,-0.0446777
1155,-1.36604e-33,0.199369,0.111882,10.2654,1.816,1.96282,-7.77637,3.98633,-0.0490723
1156,-1.36681e-33,0.190575,0.126546,10.2815,1.81003,2.0463,-4.52612,3.98755,-0.0476074
1157,-1.36757e-33,0.198697,0.12518,10.3111,1.7827,2.06812,-3.78955,3.98633,-0.0495605
1158,-1.36834e-33,0.186874,0.119583,10.2296,1.7972,2.08126,-6.3623,3.98804,-0.0483398
1159,-1.3691e-33,0.192597,0.120046,10.217,1.84504,2.02545,7.17139,3.98877,-0.0461426
1160,-1.36987e-33,0.172114,0.128673,10.2479,1.82822,1.9653,1.823,3.98682,-0.0510254
1161,-1.37063e-33,0.170962,0.122741,10.2782,1.84379,1.94266,5.75659,3.98706,-0.0476074
1162,-1.3714e-33,0.177834,0.115625,10.2687,1.75967,2.04379,-7.09595,3.98755,-0.048584
1163,-1.37216e-33,0.197965,0.10948,10.2571,1.80972,1.97965,-7.99048,3.98975,-0.0498047
1164,-1.37293e-33,0.166481,0.120977,10.2772,1.79689,1.92025,-0.174072,3.98926,-0.0454102
1165,-1.3737e-33,0.179264,0.149546,10.2829,1.7794,2.18062,0.196289,3.9873,-0.0512695
1166,-1.37446e-33,0.201832,0.124764,10.2792,1.82069,1.92834,2.50098,3.98999,-0.045166
1167,-1.37523e-33,0.189387,0.123275,10.251,1.81638,2.05782,1.19336,3.98682,-0.0512695
1168,-1.37599e-33,0.189006,0.112387,10.2712,1.81169,2.08899,-5.3623,3.9856,-0.0515137
1169,-1.37676e-33,0.197094,0.132329,10.2685,1.7555,2.21983,4.60303,3.98682,-0.0500488
1170,-1.37752e-33,0.193955,0.138497,10.2898,1.80311,2.07826,1.8728,3.98877,-0.0512695
1171,-1.37829e-33,0.18333,0.116237,10.2454,1.73339,1.98387,-1.74585,3.98779,-0.0446777
1172,-1.37905e-33,0.190739,0.114942,10.2524,1.55366,2.05818,-4.57837,3.98779,-0.0500488
1173,-1.37982e-33,0.20311,0.102437,10.261,1.73721,2.01581,-5.20679,3.98682,-0.0490723
1174,-1.38058e-33,0.210227,0.1119,10.27,1.85547,2.03082,0.247803,3.98779,-0.0490723
1175,-1.38135e-33,0.190175,0.123766,10.2527,1.85424,2.15741,0.143311,3.98755,-0.0476074
1176,-1.38211e-33,0.173354,0.136776,10.2812,2.00214,2.04437,7.38745,3.98389,-0.0461426
1177,-1.38288e-33,0.17035,0.147065,10.256,1.84671,1.91392,7.8064,3.98438,-0.0517578
1178,-1.38364e-33,0.192589,0.127296,10.2564,1.67676,1.91577,3.71167,3.98682,-0.0480957
1179,-1.38441e-33,0.201247,0.130706,10.2681,1.61224,2.15587,-7.09229,3.98462,-0.0522461
1180,-1.38517e-33,0.206867,0.122081,10.2608,1.64789,2.26061,5.7019,3.98926,-0.0500488
1181,-1.38594e-33,0.197831,0.111599,10.272,1.70184,2.08039,-6.62378,3.9873,-0.0495605
1182,-1.3867e-33,0.183931,0.128676,10.2527,1.74697,2.10326,6.70239,3.98633,-0.0488281
1183,-1.38747e-33,0.189453,0.116673,10.2919,1.7777,2.03646,3.60425,3.98853,-0.0505371
1184,-1.38824e-33,0.183938,0.104027,10.2989,1.71556,2.01976,-7.25244,3.98706,-0.0556641
1185,-1.389e-33,0.210325,0.106918,10.2778,1.7286,1.94504,1.71484,3.98926,-0.0461426
1186,-1.38977e-33,0.199996,0.126888,10.2811,1.86879,1.98495,0.510498,3.98755,-0.0510254
1187,-1.39053e-33,0.180875,0.154882,10.2804,1.88974,2.10836,-1.53735,3.98877,-0.0480957
1188,-1.3913e-33,0.208749,0.152208,10.2621,1.94087,2.02849,-1.33032,3.99121,-0.0476074
1189,-1.39206e-33,0.211855,0.13123,10.2486,1.69005,2.17155,-2.6897,3.98755,-0.0500488
1190,-1.39283e-33,0.181642,0.150703,10.2783,1.55419,2.27406,-3.63281,3.98682,-0.0471191
1191,-1.39359e-33,0.194467,0.126932,10.269,1.4762,2.24378,-2.11328,3.98804,-0.0480957
1192,-1.39436e-33,0.176105,0.113222,10.2721,1.64098,2.21143,-4.84351,3.98999,-0.0471191
1193,-1.39512e-33,0.188308,0.109579,10.2612,1.77212,2.04881,3.55176,3.98853,-0.048584
1194,-1.39589e-33,0.178265,0.112282,10.2444,1.94814,1.99138,-2.95044,3.98633,-0.0527344
1195,-1.39665e-33,0.165283,0.107349,10.2543,2.01538,1.89182,-6.8855,3.98706,-0.0466309
1196,-1.39742e-33,0.188501,0.117869,10.2643,1.98126,1.93539,7.59033,3.98901,-0.0510254
1197,-1.39818e-33,0.208602,0.143087,10.2512,1.79727,2.11704,-4.21289,3.98901,-0.0466309
1198,-1.39895e-33,0.199549,0.130488,10.2613,1.71072,2.04617,-7.93481,3.98706,-0.0495605
1199,-1.39971e-33,0.199505,0.115209,10.2589,1.62474,2.10897,-5.36523,3.98755,-0.0471191
1200,-1.40048e-33,0.197308,0.119273,10.2813,1.60629,2.0466,-3.1582,3.98511,-0.0437012
1201,-1.40124e-33,0.199179,0.129814,10.2509,1.71654,2.13787,6.54272,3.98779,-0.0512695
1202,-1.40201e-33,0.193301,0.132517,10.2479,1.73373,2.05298,-7.14966,3.98828,-0.0461426
1203,-1.40278e-33,0.180092,0.121118,10.2498,1.80847,2.12962,-5.57495,3.9873,-0.0490723
1204,-1.40354e-33,0.180937,0.13786,10.2623,1.70458,1.85319,3.6062,3.98706,-0.0500488
1205,-1.40431e-33,0.172676,0.120337,10.2784,1.6307,2.09909,-7.72729,3.98901,-0.045166
1206,-1.40507e-33,0.189074,0.125784,10.2777,1.80322,2.11051,2.70972,3.99048,-0.0541992
1207,-1.40584e-33,0.19809,0.116992,10.2575,1.83308,1.85137,-0.328125,3.98706,-0.0480957
1208,-1.4066e-33,0.195591,0.119594,10.2803,1.79584,2.00101,3.87109,3.98511,-0.0551758
1209,-1.40737e-33,0.189658,0.122328,10.2545,1.86264,2.05244,2.45068,3.98804,-0.0495605
1210,-1.40813e-33,0.186183,0.144099,10.28,1.8996,2.0508,7.17432,3.98633,-0.0500488
1211,-1.4089e-33,0.196739,0.140794,10.2829,1.76026,2.05695,-7.93555,3.98755,-0.0488281
1212,-1.40966e-33,0.184916,0.123732,10.2732,1.51411,2.01666,-1.79395,3.98462,-0.0480957
1213,-1.41043e-33,0.198176,0.102051,10.2654,1.60432,2.11397,2.92529,3.98633,-0.0512695
1214,-1.41119e-33,0.186121,0.111502,10.243,1.67033,2.25029,-6.8335,3.98706,-0.0471191
1215,-1.41196e-33,0.198057,0.105952,10.2928,1.66116,2.14481,5.02197,3.98755,-0.0490723
1216,-1.41272e-33,0.174625,0.132153,10.2868,1.90216,2.09302,0.824463,3.98828,-0.0490723
1217,-1.41349e-33,0.186449,0.120934,10.2686,1.97291,1.84694,-6.20508,3.98804,-0.0466309
1218,-1.41425e-33,0.188418,0.113323,10.2661,1.78675,1.88252,5.64697,3.99072,-0.050293
1219,-1.41502e-33,0.207283,0.113385,10.2478,1.7683,1.84776,0.616455,3.98682,-0.045166
1220,-1.41578e-33,0.204781,0.123461,10.2841,1.78503,2.20126,4.3916,3.98828,-0.0490723
1221,-1.41655e-33,0.183895,0.121289,10.2799,1.94783,2.15293,-2.27124,3.98828,-0.0461426
1222,-1.41732e-33,0.169126,0.134516,10.2512,1.73634,2.01494,6.17163,3.99072,-0.0480957
1223,-1.41808e-33,0.194756,0.154551,10.2791,1.69994,1.94976,7.54248,3.9856,-0.050293
1224,-1.41885e-33,0.190992,0.121405,10.2805,1.55312,2.05823,4.28662,3.98828,-0.0454102
1225,-1.41961e-33,0.187395,0.115713,10.273,1.65885,2.353,4.23218,3.9895,-0.0515137
1226,-1.42038e-33,0.169942,0.126674,10.2629,1.7829,2.06131,5.3374,3.98706,-0.0461426
1227,-1.42114e-33,0.175835,0.118402,10.2786,1.87898,1.9997,5.12891,3.98608,-0.0505371
1228,-1.42191e-33,0.174465,0.132433,10.2996,1.90024,1.89548,-2.16016,3.98389,-0.0461426
1229,-1.42267e-33,0.193399,0.122446,10.3039,1.83813,1.97271,6.38477,3.98853,-0.0471191
1230,-1.42344e-33,0.184726,0.120701,10.2726,1.83262,2.03974,-5.72876,3.98511,-0.0546875
1231,-1.4242e-33,0.176866,0.140669,10.293,1.87366,2.1506,-7.98779,3.98755,-0.0466309
1232,-1.42497e-33,0.198522,0.136746,10.2795,1.73534,2.15231,-1.53589,3.98779,-0.0505371
1233,-1.42573e-33,0.19929,0.130934,10.2615,1.69008,2.09775,-5.78442,3.98755,-0.0495605
1234,-1.4265e-33,0.174633,0.121636,10.2711,1.57812,2.12224,7.4375,3.98584,-0.0476074
1235,-1.42726e-33,0.176832,0.115845,10.241,1.63055,2.1237,2.76807,3.98633,-0.0500488
1236,-1.42803e-33,0.173729,0.115885,10.2399,1.62576,2.08049,2.81543,3.98999,-0.0449219
1237,-1.42879e-33,0.187907,0.116953,10.2651,1.81718,2.20492,4.5481,3.98877,-0.0507812
1238,-1.42956e-33,0.185714,0.125428,10.2798,1.93623,2.00501,6.69897,3.98877,-0.0471191
1239,-1.43032e-33,0.183911,0.136131,10.2584,2.00037,2.01781,-4.62842,3.98608,-0.0515137
1240,-1.43109e-33,0.170529,0.137556,10.2762,1.84689,2.03167,5.17969,3.98706,-0.0471191
1241,-1.43186e-33,0.186183,0.124405,10.258,1.71508,2.00995,1.4541,3.98804,-0.0490723
1242,-1.43262e-33,0.187265,0.127119,10.2718,1.58222,2.05157,6.0188,3.98755,-0.0512695
1243,-1.43339e-33,0.197469,0.11636,10.2859,1.7253,2.24383,4.8645,3.98755,-0.0471191
1244,-1.43415e-33,0.182944,0.133141,10.2637,1.87647,2.13182,-6.9397,3.98828,-0.0517578
1245,-1.43492e-33,0.167678,0.124298,10.2933,1.70824,2.00795,-6.88501,3.98657,-0.048584
1246,-1.43568e-33,0.187561,0.121787,10.2764,1.691,2.09978,-7.56641,3.98633,-0.052002
1247,-1.43645e-33,0.188316,0.127421,10.2786,1.642,2.14847,6.33521,3.98608,-0.0480957
1248,-1.43721e-33,0.185125,0.135833,10.2637,1.70557,2.15667,5.59985,3.98682,-0.046875
1249,-1.43798e-33,0.180158,0.131809,10.2595,1.65637,2.07311,-4.57666,3.98633,-0.0512695
1250,-1.43874e-33,0.184915,0.120768,10.2719,1.82337,1.99555,6.64331,3.99097,-0.0456543
1251,-1.43951e-33,0.186415,0.132719,10.2531,1.76103,2.05846,-7.09497,3.98682,-0.0515137
1252,-1.44027e-33,0.198424,0.136055,10.2249,1.80242,2.11604,2.97754,3.98633,-0.0461426
1253,-1.44104e-33,0.198486,0.12965,10.2401,1.66418,1.97465,0.615967,3.98706,-0.0515137
1254,-1.4418e-33,0.195996,0.123672,10.2395,1.80565,2.09176,5.59814,3.98853,-0.0498047
1255,-1.44257e-33,0.192963,0.11897,10.2717,1.70015,2.15157,-6.67822,3.98901,-0.0466309
1256,-1.44333e-33,0.203021,0.13781,10.2968,1.87399,2.03044,0.142334,3.98828,-0.0541992
1257,-1.4441e-33,0.176379,0.118773,10.2599,1.68872,2.081,-6.30908,3.98755,-0.0441895
1258,-1.44486e-33,0.205179,0.121455,10.267,1.669,2.10075,4.7583,3.98853,-0.048584
1259,-1.44563e-33,0.182061,0.121852,10.2691,1.71546,2.11312,5.8103,3.98633,-0.0495605
1260,-1.4464e-33,0.164561,0.133276,10.2603,1.73954,2.14491,0.928711,3.98853,-0.0454102
1261,-1.44716e-33,0.197723,0.143996,10.2575,1.93854,1.98326,7.33276,3.98584,-0.0483398
1262,-1.44793e-33,0.17924,0.126575,10.2582,1.89479,1.92437,-7.20044,3.9873,-0.0480957
1263,-1.44869e-33,0.192071,0.118219,10.2538,1.78257,1.94568,5.49683,3.9856,-0.0529785
1264,-1.44946e-33,0.201589,0.130691,10.2771,1.68729,1.96733,1.19141,3.98828,-0.0446777
1265,-1.45022e-33,0.198032,0.136514,10.2671,1.79697,2.25551,-3.1665,3.99097,-0.0480957
1266,-1.45099e-33,0.183451,0.145085,10.2586,1.73301,2.13618,6.38525,3.98804,-0.0512695
1267,-1.45175e-33,0.189015,0.136176,10.2874,1.67691,2.17099,-1.06299,3.98706,-0.0441895
1268,-1.45252e-33,0.175704,0.130075,10.3228,1.68872,2.16013,-5.68042,3.98828,-0.0524902
1269,-1.45328e-33,0.18235,0.114837,10.2649,1.62461,1.92045,5.44263,3.98682,-0.0461426
1270,-1.45405e-33,0.182958,0.101103,10.2624,1.73939,2.00682,4.396,3.98511,-0.0544434
1271,-1.45481e-33,0.196835,0.117327,10.269,1.73398,2.07537,2.0332,3.98657,-0.0476074
1272,-1.45558e-33,0.199537,0.138212,10.2844,1.82345,2.08415,4.54956,3.98779,-0.0461426
1273,-1.45634e-33,0.191193,0.14353,10.2793,1.80447,1.95693,-4.47534,3.98926,-0.0507812
1274,-1.45711e-33,0.199141,0.133926,10.2716,1.86792,1.98836,0.145996,3.9856,-0.0466309
1275,-1.45787e-33,0.207937,0.133689,10.2625,1.75542,1.96062,-3.42261,3.98657,-0.0537109
1276,-1.45864e-33,0.196049,0.111247,10.2551,1.71638,1.96351,2.82202,3.98486,-0.0471191
1277,-1.4594e-33,0.205479,0.101279,10.271,1.68969,2.15385,5.54785,3.98633,-0.052002
1278,-1.46017e-33,0.194107,0.144711,10.2259,1.70775,2.18707,5.86108,3.98755,-0.050293
1279,-1.46094e-33,0.173177,0.133884,10.2481,1.7367,2.13308,-0.959229,3.98804,-0.0480957
1280,-1.4617e-33,0.172708,0.114554,10.3106,1.68613,2.09586,2.71631,3.9856,-0.0512695
1281,-1.46247e-33,0.189497,0.130875,10.2931,1.67553,2.09927,0.0373535,3.98877,-0.0461426
1282,-1.46323e-33,0.198838,0.122381,10.2562,1.77965,2.00964,-4.10571,3.9873,-0.0490723
1283,-1.464e-33,0.18734,0.130553,10.2508,1.67991,2.21637,-6.1521,3.98755,-0.0517578
1284,-1.46476e-33,0.189704,0.115882,10.2831,1.83593,2.02081,-5.20923,3.98901,-0.0476074
1285,-1.46553e-33,0.17836,0.130112,10.2627,1.86897,2.14916,-2.05786,3.98608,-0.050293
1286,-1.46629e-33,0.200402,0.136785,10.2598,1.85537,1.8505,4.44263,3.9895,-0.0446777
1287,-1.46706e-33,0.177156,0.126537,10.3228,1.64943,1.88813,-2.47803,3.98633,-0.0537109
1288,-1.46782e-33,0.184355,0.132876,10.2284,1.63946,1.89832,-7.93335,3.98608,-0.0461426
1289,-1.46859e-33,0.187742,0.113247,10.2525,1.67107,2.04709,0.558838,3.99048,-0.048584
1290,-1.46935e-33,0.187214,0.134907,10.2663,1.8465,2.15372,-7.83081,3.98779,-0.050293
1291,-1.47012e-33,0.181511,0.13386,10.2565,1.89325,2.061,-0.38208,3.98804,-0.045166
1292,-1.47088e-33,0.190874,0.120996,10.2613,1.74863,2.08034,5.70264,3.98853,-0.0529785
1293,-1.47165e-33,0.194383,0.134124,10.2573,1.74722,2.05777,-1.74194,3.98486,-0.0500488
1294,-1.47241e-33,0.179064,0.119508,10.2874,1.64466,1.96935,-7.09497,3.98682,-0.0500488
1295,-1.47318e-33,0.189895,0.123761,10.2769,1.64548,2.02504,-4.8418,3.98853,-0.0478516
1296,-1.47394e-33,0.207484,0.111952,10.2612,1.8597,1.93828,3.92212,3.98633,-0.048584
1297,-1.47471e-33,0.185593,0.12753,10.2382,1.94066,2.06802,-1.90552,3.98926,-0.050293
1298,-1.47548e-33,0.198993,0.122804,10.2475,1.95926,1.92427,7.8064,3.98462,-0.0446777
1299,-1.47624e-33,0.198928,0.128855,10.2914,1.82005,2.01666,-2.31689,3.98364,-0.0515137
1300,-1.47701e-33,0.188761,0.134253,10.2771,1.6472,1.92768,-2.4231,3.98438,-0.0456543
1301,-1.47777e-33,0.182467,0.1143,10.2728,1.69512,2.08556,-1.00952,3.98633,-0.052002
1302,-1.47854e-33,0.180064,0.115204,10.2968,1.67225,2.13756,-7.20166,3.98804,-0.050293
1303,-1.4793e-33,0.188466,0.115177,10.2538,1.79341,2.14606,7.90771,3.98706,-0.0427246
1304,-1.48007e-33,0.175426,0.114116,10.277,1.89023,2.12836,4.13208,3.98633,-0.0493164
1305,-1.48083e-33,0.17738,0.109668,10.2799,1.73641,1.93764,-6.67896,3.98926,-0.048584
1306,-1.4816e-33,0.190189,0.114992,10.2614,1.69044,2.0266,-5.62573,3.98633,-0.0505371
1307,-1.48236e-33,0.199522,0.125458,10.2921,1.57499,2.00311,1.76978,3.9873,-0.0500488
1308,-1.48313e-33,0.191661,0.119685,10.2853,1.81057,2.04998,7.38184,3.98804,-0.0454102
1309,-1.48389e-33,0.184852,0.100607,10.247,1.82002,2.07217,-1.58813,3.98755,-0.0495605
1310,-1.48466e-33,0.178448,0.123447,10.256,1.92207,2.1404,-5.73193,3.9873,-0.0466309
1311,-1.48542e-33,0.194739,0.136742,10.2903,1.82253,1.9754,-0.906494,3.98804,-0.0515137
1312,-1.48619e-33,0.182732,0.114781,10.2702,1.83774,2.02506,4.49829,3.98706,-0.0476074
1313,-1.48695e-33,0.180927,0.12142,10.2437,1.68462,2.1477,-1.3252,3.9873,-0.0490723
1314,-1.48772e-33,0.176677,0.137537,10.2965,1.71661,2.0682,-2.74072,3.98657,-0.050293
1315,-1.48848e-33,0.18715,0.125851,10.2655,1.83529,2.11307,-7.30737,3.98877,-0.0490723
1316,-1.48925e-33,0.201225,0.125145,10.284,1.73811,2.01425,3.97485,3.9856,-0.0510254
1317,-1.49002e-33,0.19699,0.132997,10.2938,1.74984,2.08292,-6.9397,3.98828,-0.0456543
1318,-1.49078e-33,0.189018,0.130205,10.2754,1.85129,2.02501,3.70947,3.98853,-0.0505371
1319,-1.49155e-33,0.178871,0.114811,10.2806,1.74879,1.96907,2.9209,3.98975,-0.0480957
1320,-1.49231e-33,0.180848,0.125954,10.2534,1.82732,2.02796,4.86499,3.98706,-0.0476074
1321,-1.49308e-33,0.187389,0.125772,10.2709,1.77066,2.13402,-5.1001,3.9856,-0.0505371
1322,-1.49384e-33,0.19308,0.119288,10.2867,1.70137,1.98049,-6.72925,3.98779,-0.0476074
1323,-1.49461e-33,0.220859,0.108247,10.2681,1.77881,2.20682,-1.85278,3.9895,-0.0500488
1324,-1.49537e-33,0.199189,0.122425,10.2689,1.72448,2.18961,3.2395,3.98657,-0.045166
1325,-1.49614e-33,0.19251,0.134283,10.2467,1.83096,2.04414,1.45459,3.98755,-0.0456543
1326,-1.4969e-33,0.180994,0.144019,10.2806,1.74838,2.02829,-5.99341,3.98682,-0.0493164
1327,-1.49767e-33,0.196046,0.120618,10.3073,1.72338,2.03118,-4.00122,3.98779,-0.0471191
1328,-1.49843e-33,0.196987,0.162123,10.2853,1.70391,2.00941,-6.9939,3.9895,-0.0515137
1329,-1.4992e-33,0.195522,0.14021,10.2522,1.77998,1.98267,0.617432,3.98608,-0.0466309
1330,-1.49996e-33,0.182587,0.116796,10.3107,1.80096,2.07411,-1.90356,3.98804,-0.0578613
1331,-1.50073e-33,0.193337,0.119498,10.2524,1.87714,2.07501,0.513672,3.98535,-0.0505371
1332,-1.50149e-33,0.197855,0.12129,10.2663,1.85211,1.98884,-5.30957,3.98535,-0.0466309
1333,-1.50226e-33,0.197049,0.116146,10.2706,1.74735,2.01835,-4.41919,3.98633,-0.0500488
1334,-1.50302e-33,0.194661,0.107197,10.2675,1.55507,2.04225,-1.37695,3.98657,-0.048584
1335,-1.50379e-33,0.175759,0.109196,10.2658,1.72991,2.20375,5.54688,3.98706,-0.0510254
1336,-1.50456e-33,0.17054,0.118009,10.2561,1.81315,2.01579,1.56299,3.98511,-0.0437012
1337,-1.50532e-33,0.180499,0.12844,10.2935,1.74092,1.99461,0.875732,3.98901,-0.0510254
1338,-1.50609e-33,0.188352,0.122949,10.2461,1.74622,2.07424,6.54199,3.98853,-0.0483398
1339,-1.50685e-33,0.200668,0.117695,10.2406,1.74108,2.14842,2.76636,3.98755,-0.0490723
1340,-1.50762e-33,0.174794,0.112125,10.2441,1.73221,1.93966,-2.32202,3.9873,-0.0498047
1341,-1.50838e-33,0.197207,0.122782,10.2438,1.71869,1.97516,-3.84106,3.9856,-0.0466309
1342,-1.50915e-33,0.204781,0.124804,10.2988,1.71685,2.15103,-1.53638,3.98828,-0.052002
1343,-1.50991e-33,0.195247,0.135651,10.2694,1.84876,2.15167,-0.222412,3.98633,-0.0500488
1344,-1.51068e-33,0.190361,0.119034,10.2711,1.6649,2.06604,-1.58691,3.98633,-0.0458984
1345,-1.51144e-33,0.178257,0.118615,10.2838,1.71231,2.07721,-5.36499,3.98755,-0.0488281
1346,-1.51221e-33,0.193944,0.115286,10.2894,1.67917,1.94768,-3.26587,3.98706,-0.0490723
1347,-1.51297e-33,0.163357,0.132033,10.2724,1.66085,2.01523,5.12378,3.98975,-0.0505371
1348,-1.51374e-33,0.184572,0.120251,10.2923,1.71961,2.19396,4.70972,3.9856,-0.0437012
1349,-1.5145e-33,0.179311,0.117418,10.2642,1.70132,2.05398,-5.47339,3.98999,-0.0510254
1350,-1.51527e-33,0.189313,0.11305,10.2723,1.78045,1.98311,-6.93823,3.98706,-0.0488281
1351,-1.51603e-33,0.16965,0.115445,10.2554,1.88805,1.99366,3.81519,3.98779,-0.0480957
1352,-1.5168e-33,0.184422,0.123241,10.2897,1.80196,1.88833,2.45288,3.98682,-0.0537109
1353,-1.51756e-33,0.185445,0.130876,10.2635,1.76093,1.963,-3.99707,3.98438,-0.0461426
1354,-1.51833e-33,0.179599,0.106269,10.2512,1.75342,2.17288,4.65649,3.98633,-0.052002
1355,-1.5191e-33,0.204231,0.118399,10.2384,1.84433,2.14153,-6.20264,3.98633,-0.0500488
1356,-1.51986e-33,0.190618,0.130456,10.2557,1.77591,2.08743,-7.41089,3.98755,-0.0476074
1357,-1.52063e-33,0.197768,0.134165,10.2527,1.81638,2.07947,-6.73071,3.98877,-0.0483398
1358,-1.52139e-33,0.209146,0.12041,10.2657,1.90606,2.21412,-3.26416,3.9856,-0.0466309
1359,-1.52216e-33,0.191478,0.112078,10.2845,1.80327,2.09773,-2.06055,3.98755,-0.0480957
1360,-1.52292e-33,0.205493,0.124026,10.2635,1.73175,2.07342,-2.16309,3.98608,-0.0515137
1361,-1.52369e-33,0.197846,0.11743,10.268,1.73314,2.10646,-5.68066,3.98828,-0.0500488
1362,-1.52445e-33,0.17714,0.124219,10.2508,1.85501,2.08664,-3.73657,3.98584,-0.0473633
1363,-1.52522e-33,0.173388,0.123374,10.2586,1.81897,2.05736,-2.84375,3.98511,-0.0476074
1364,-1.52598e-33,0.173782,0.125406,10.2474,1.86205,2.07552,-0.433838,3.9873,-0.0524902
1365,-1.52675e-33,0.17237,0.12155,10.2618,1.91612,1.98305,0.823975,3.98853,-0.0505371
1366,-1.52751e-33,0.206593,0.150338,10.2557,1.77432,1.97568,-3.8457,3.98901,-0.052002
1367,-1.52828e-33,0.187686,0.137612,10.2586,1.7962,2.27457,-7.67407,3.98828,-0.0529785
1368,-1.52904e-33,0.207251,0.145286,10.2866,1.71336,2.22063,5.49487,3.98706,-0.0471191
1369,-1.52981e-33,0.193055,0.140483,10.2879,1.82686,2.10019,4.07642,3.98853,-0.0512695
1370,-1.53057e-33,0.179741,0.142143,10.2909,1.79912,2.01487,6.17432,3.98901,-0.048584
1371,-1.53134e-33,0.20411,0.123042,10.2837,1.63739,2.01761,6.0188,3.98755,-0.0500488
1372,-1.5321e-33,0.186013,0.137102,10.2533,1.86354,2.04612,-2.2688,3.98657,-0.0432129
1373,-1.53287e-33,0.179086,0.112346,10.3007,1.79402,2.14009,6.22803,3.98779,-0.048584
1374,-1.53364e-33,0.188245,0.132955,10.2609,1.80457,2.08272,0.036377,3.98926,-0.0498047
1375,-1.5344e-33,0.188625,0.131545,10.2727,1.83567,2.11333,-5.15356,3.98633,-0.0476074
1376,-1.53517e-33,0.198037,0.113097,10.2746,1.7879,2.06661,3.28979,3.98828,-0.0524902
1377,-1.53593e-33,0.173468,0.140153,10.3127,1.73378,2.09722,-7.04419,3.98804,-0.0505371
1378,-1.5367e-33,0.199841,0.133077,10.2666,1.69272,2.05577,-6.57422,3.9895,-0.0500488
1379,-1.53746e-33,0.179741,0.133333,10.2697,1.66961,2.02696,-3.15723,3.98413,-0.052002
1380,-1.53823e-33,0.191168,0.112051,10.2584,1.75711,1.98441,4.49829,3.98682,-0.0471191
